Pi_Timestamp,Pixhawk_Hardware_Timestamp,Accel_X,Accel_Y,Accel_Z,Gyro_X,Gyro_Y,Gyro_Z,Q_X,Q_Y,Q_Z,Q_W
1777656464.9238179,1777656464.9159892,1.4906108,0.5785923499999989,-9.5712904,0.002802426926791668,-0.023362571373581886,0.006828563287854197,-0.9805242960057553,-0.18336540099938164,-0.042346818913164525,-0.056178123737710625
1777656464.9600773,1777656464.9550035,1.4513842000000001,0.6374322499999989,-9.5124505,-0.024416418746113777,-0.06452310085296631,0.005977644585073002,-0.9804925976165932,-0.1838190799424828,-0.040785140127055364,-0.05640376062800038
1777656464.9799542,1777656464.9750035,1.48080415,0.4412992499999988,-9.56148375,-0.014607755467295647,-0.07625238597393036,-0.0039108349010348225,-0.9804457438393621,-0.18443297104173328,-0.03994355003375359,-0.0558133979497764
1777656465.0006878,1777656464.9960034,1.4906108,0.43149259999999884,-9.50264385,0.0032160808332264423,-0.08699119836091995,-0.019502950832247724,-0.9803708215701323,-0.18525338966568683,-0.03868739741872919,-0.055294838025288444
1777656465.0225449,1777656465.0160034,1.4906108,0.4216859499999988,-9.3947707,0.023202208802103996,-0.10334334522485733,-0.039177644997835145,-0.9802627855768409,-0.18634212975824987,-0.03687742217676081,-0.05478629047388286
1777656465.0609999,1777656465.0550034,1.52003075,0.3530393999999989,-9.26728425,0.04287545010447502,-0.1795746237039566,-0.10794210433959958,-0.9796909305350578,-0.19031831341798472,-0.03092754271720848,-0.055028240990981324
1777656465.080572,1777656465.0750034,1.6082906000000001,0.1863263499999989,-9.18883105,0.052046582102775574,-0.22769670188426974,-0.15244546532630918,-0.9793540442052362,-0.19273141131721566,-0.02750709986330647,-0.05443912791028615
1777656465.1007788,1777656465.0960035,1.6082906000000001,0.19613299999999886,-9.30651085,0.07059226930141449,-0.2690637409687042,-0.19270904362201688,-0.9790235775053125,-0.1950898883050553,-0.02405332767809018,-0.05361163677253957
1777656465.120017,1777656465.1160035,1.50041745,0.27458619999999884,-9.4732239,0.08976637572050095,-0.2926984429359436,-0.220893919467926,-0.978700442353798,-0.19725618567729203,-0.02126022918267933,-0.05275835482296277
1777656465.1606462,1777656465.1550035,1.3925443,0.3628460499999988,-9.6497436,0.12481169402599335,-0.2832587361335755,-0.23434765636920926,-0.978167867239425,-0.2009984417347384,-0.016541532685304474,-0.050136090961529746
1777656465.1797967,1777656465.1750035,1.1179581,0.35303939999999884,-9.87529655,0.15093901753425598,-0.25615850090980535,-0.2278262227773666,-0.9779242614260001,-0.20290138504340688,-0.01480979352009557,-0.047705732126985805
1777656465.1999872,1777656465.1960034,1.0591182,0.2843928499999988,-10.002783,0.18948158621788025,-0.21437728404998782,-0.21948012709617612,-0.9776885548387131,-0.2048181899672522,-0.013399484497878403,-0.04466601181120474
1777656465.2406967,1777656465.2350035,1.0198916,0.2647795499999988,-10.01258965,0.2516688108444214,-0.14754033088684085,-0.21198023855686185,-0.9771010779638575,-0.2087971851932779,-0.009729981163448463,-0.03978123130058715
1777656465.2616847,1777656465.2550035,0.784532,0.24516624999999878,-9.87529655,0.25448840856552124,-0.14195688068866733,-0.21143501996994016,-0.9767920513504835,-0.2105823382637062,-0.007626484899769169,-0.03839536375629343
1777656465.2822838,1777656465.2750034,0.67665885,0.21574629999999878,-9.99297635,0.2293187528848648,-0.14550773799419406,-0.20701414346694944,-0.9764944923578607,-0.21205110780247322,-0.006093622628917473,-0.03815366086975042
1777656465.3019614,1777656465.2960033,0.6472389000000001,0.2549728999999987,-10.18910935,0.16468119621276855,-0.1449924856424332,-0.19265270233154294,-0.9762634547010816,-0.2128784261151787,-0.005396350656252015,-0.03953886833773363
1777656465.3225098,1777656465.3160036,0.6276256,0.32361944999999875,-10.28717585,0.06611494719982147,-0.13550937175750735,-0.1676312983036041,-0.9760530962955576,-0.21334952609227653,-0.005360481653173348,-0.042114108853236014
1777656465.3623085,1777656465.3550034,0.57859235,0.2745861999999987,-10.2773692,-0.160247340798378,-0.09000271558761598,-0.11620769649744032,-0.9754913896796789,-0.21437489480581795,-0.006564262966742041,-0.049161606864569406
1777656465.3826256,1777656465.3750033,0.4903325,0.24516624999999878,-10.05181625,-0.28170931339263916,-0.07044396549463273,-0.09413353353738783,-0.975138115830269,-0.21443568017303272,-0.00737558021567362,-0.05539489994759409
1777656465.399895,1777656465.3960035,0.4511059,0.5785923499999989,-9.8458766,-0.43017521500587463,-0.06426917016506196,-0.06699158251285552,-0.9747351211845285,-0.21386445488722794,-0.00834665744620535,-0.06390439558158019
1777656465.419796,1777656465.4160035,0.5099458,0.9022117999999989,-9.6301303,-0.5921385288238525,-0.07257488369941711,-0.03373033180832862,-0.9742668675732751,-0.21282144774124023,-0.009249244599072205,-0.07365835733049916
1777656465.4673164,1777656465.4550035,0.5687857000000001,1.117958099999999,-9.42419065,-0.8663948774337769,-0.1069149523973465,0.05063491687178613,-0.9732876495750484,-0.2091385594040927,-0.011997831752297064,-0.09395885369831908
1777656465.4810188,1777656465.4750035,0.5295591,1.510224099999999,-9.6301303,-1.0073604583740234,-0.0747358351945877,0.08577334135770799,-0.971959179438761,-0.20815653103775167,-0.018128486072063923,-0.10787756988269134
1777656465.500357,1777656465.4960034,0.8629852,1.8730701499999987,-10.7088618,-1.2030234336853027,0.012844499200582516,0.09561947733163834,-0.9697859844519146,-0.20789091798969067,-0.025043594548220645,-0.12517719021506624
1777656465.522162,1777656465.5160034,0.59820565,2.0299765499999984,-10.97364135,-1.4366635084152222,0.0916198715567589,0.08424333482980727,-0.9670688070769238,-0.20753605216620669,-0.030890710812700367,-0.1440571880038173
1777656465.5598207,1777656465.5550034,0.44129925000000003,2.079009799999999,-10.2969825,-1.8228473663330078,0.14639359712600708,0.0352397561073303,-0.960238149484251,-0.20664708692414024,-0.041212741225505015,-0.18314253384046963
1777656465.5797775,1777656465.5750034,0.89240515,2.520309049999999,-9.52225715,-2.001706600189209,0.1401028335094452,0.007257340475916845,-0.9551392559374758,-0.2060448298247986,-0.04755486386652891,-0.20734769058832234
1777656465.6000078,1777656465.5960035,1.06892485,3.167547949999999,-9.551677100000001,-2.2469065189361572,0.13414494693279266,-0.01323759369552137,-0.9476957128420962,-0.20724316179419222,-0.054790847711450694,-0.2364763640563644
1777656465.6195266,1777656465.6160035,1.08853815,3.7853668999999988,-9.44380395,-2.5399365425109863,0.13729365170001984,-0.027299122884869593,-0.9389682410926647,-0.20869747951318263,-0.06259748527804176,-0.26620585850250805
1777656465.6601493,1777656465.6550035,1.06892485,3.716720349999999,-9.1397978,-2.8167965412139893,0.15876542031764984,-0.08830921351909639,-0.9221993479538072,-0.21311828265908378,-0.07360817924850502,-0.3141827432844393
1777656465.6813023,1777656465.6750035,0.73549875,4.687578699999999,-7.688413600000001,-2.7810330390930176,0.11328428238630293,-0.11945194751024248,-0.9137140196921842,-0.2149336641073084,-0.07593080451281099,-0.3363996480042671
1777656465.7025998,1777656465.6960034,0.51975245,5.717276949999999,-7.1882744500000015,-2.6941721439361572,0.04845040291547773,-0.17668628692626953,-0.904171939496641,-0.21862446535834568,-0.07800144147505693,-0.35859757682041515
1777656465.7210875,1777656465.7160034,0.8041453000000001,6.1291562499999985,-7.139241200000002,-2.5981998443603516,-0.0039866408333182664,-0.2683255076408386,-0.8933411399526008,-0.2238554870753378,-0.08017407686100687,-0.38131672658557275
1777656465.7623863,1777656465.755016,0.87279185,6.344902549999999,-7.080401300000001,-2.4273693561553955,-0.03021421469748026,-0.4856750965118408,-0.8718666031449321,-0.2354451642010797,-0.08391470301620933,-0.42115617482419243
1777656465.7801738,1777656465.776016,0.4707192,6.403742449999999,-6.9234949000000015,-2.3043253421783447,-0.027191007509827683,-0.5757211446762085,-0.8616757693322866,-0.24130869406497196,-0.08527174386978752,-0.4381936928022529
1777656465.7998369,1777656465.796016,0.588399,6.658715349999999,-6.776395150000001,-2.17523455619812,-0.006713637150824147,-0.6329710483551025,-0.8518234236918134,-0.24630509110175397,-0.08767225610399602,-0.45392095397431165
1777656465.8202,1777656465.816016,0.5295591,7.080401299999999,-6.590068800000001,-2.0519495010375977,0.026042312383651654,-0.6634303331375122,-0.8416820997466159,-0.25139636566433293,-0.09052704916286052,-0.46922911638852677
1777656465.8602242,1777656465.8550293,0.36284605000000003,7.580540449999999,-6.305675950000001,-1.821420669555664,0.10149504989385597,-0.6466057300567627,-0.8227246816904075,-0.26060376770040083,-0.09529124604243595,-0.49611425380193724
1777656465.8804865,1777656465.8750293,-0.0392266,8.11009955,-5.540757250000001,-1.7505935430526733,0.12035553902387612,-0.6215077042579651,-0.8117536433111037,-0.2643920585224384,-0.09867162464208727,-0.5112893236240196
1777656465.9033194,1777656465.8960292,-0.1176798,8.521978849999998,-5.334817600000001,-1.7400753498077393,0.1262563169002532,-0.5856878161430359,-0.8008548626836125,-0.2670798803502866,-0.10164472478914642,-0.5262776608888386
1777656465.9405403,1777656465.9350293,-0.0980665,8.629852,-5.060231400000001,-1.862147569656372,0.0866676121950149,-0.49665284156799316,-0.7753905151992289,-0.2692703667651721,-0.10937658075943073,-0.5606244572818776
1777656465.962404,1777656465.9550292,-0.2745862,9.18883105,-4.462025750000001,-2.0516579151153564,0.05311930179595942,-0.4329792559146881,-0.7589507060568762,-0.2675308937506652,-0.11528436966487697,-0.5823491742723701
1777656465.982143,1777656465.9750292,-0.392266,9.3947707,-4.393379200000001,-2.3000998497009277,0.003104996401816566,-0.3276504576206207,-0.7421972627589901,-0.26215602332001775,-0.12225794856997453,-0.6045415094115194
1777656466.0013309,1777656465.9960294,-0.48052585000000003,9.18883105,-4.334539300000001,-2.5040526390075684,-0.08113179355859759,-0.17087401449680328,-0.7275085914650826,-0.2538299523742823,-0.1282673445805839,-0.6243789658023456
1777656466.0205011,1777656466.0160294,-0.3334261,8.7475318,-3.687300400000001,-2.5756771564483643,-0.18985533714294434,-0.005716296844184375,-0.7160545493243111,-0.24543391676161028,-0.13235927388273958,-0.6399289784907747
1777656466.0604057,1777656466.0550294,-0.30400615,8.69849855,-2.461469150000001,-2.3119332790374756,-0.3638900518417358,0.25073215365409857,-0.6977713561325255,-0.23100973787978296,-0.13934833959779105,-0.6635749210277833
1777656466.0797338,1777656466.0750294,-0.3138128,9.26728425,-0.9904716500000011,-2.019101858139038,-0.3973268568515777,0.31988912820816046,-0.6921225505674862,-0.22470508061219155,-0.14212934900968788,-0.6710240307866093
1777656466.1027353,1777656466.0960293,-0.2549729,9.32612415,-0.7845320000000011,-1.6975722312927246,-0.3904747068881988,0.3592901825904847,-0.6878457954089988,-0.2197696436217095,-0.14517931710705867,-0.6763818680042191
1777656466.140783,1777656466.1350293,-0.04903325,9.5320638,-0.6178189500000012,-1.0409514904022217,-0.27519130706787104,0.3544461131095887,-0.6827108062163074,-0.21374845348915483,-0.1500345629006425,-0.6824274200540944
1777656466.16108,1777656466.1550293,0.22555295,9.7085835,-0.2843928500000012,-0.7514687776565552,-0.1992925256490707,0.3025575578212738,-0.682070919537124,-0.21290133463081792,-0.15105881151410133,-0.6831057882188862
1777656466.1818354,1777656466.1750293,0.40207265000000003,9.62032365,-0.1569064000000012,-0.48044154047966003,-0.12357169389724729,0.22840002179145816,-0.6825948000407863,-0.2133635901353105,-0.15120019152197528,-0.682406637896766
1777656466.20096,1777656466.1960294,0.48052585000000003,9.71839015,-0.09806650000000118,-0.23384429514408112,-0.04869536682963369,0.14365503191947937,-0.6839603656527191,-0.2148907596480005,-0.15117636039021132,-0.6805629197166658
1777656466.2400405,1777656466.2350292,0.4314926,9.93413645,-0.14709975000000122,0.17971837520599365,0.09401770681142807,0.005864092148840416,-0.6893462620777948,-0.21942852005405744,-0.1519226468227418,-0.6734778132415578
1777656466.26014,1777656466.255044,0.3138128,10.2773692,-0.48052585000000125,0.34033674001693726,0.15848000347614288,-0.01524750143289568,-0.6938415761137233,-0.22181083452318717,-0.15281708477631123,-0.6678553432777352
1777656466.2800536,1777656466.275044,0.2353596,10.091042850000001,-0.5785923500000013,0.538573145866394,0.21268118917942047,-0.006169971078634288,-0.701896500598121,-0.2245394995670962,-0.15288993562065467,-0.658443606672722
1777656466.300043,1777656466.2960439,0.2157463,9.79684335,-0.6080123000000012,0.8033826351165771,0.24499580264091492,0.027569541707634895,-0.7131451543091596,-0.22734110559139853,-0.1518529493113931,-0.6455080885467486
1777656466.3219647,1777656466.3160439,0.2549729,9.639936950000001,-0.8924051500000011,1.110971450805664,0.25300315022468567,0.07238963246345517,-0.725553962091003,-0.22997787424796493,-0.1502893815522027,-0.6309474837441631
1777656466.3612285,1777656466.3550582,0.20593965,9.7478101,-1.314091100000001,1.6321344375610352,0.25734764337539673,0.18751031160354611,-0.7489437624568505,-0.23387161050940147,-0.14946244167076966,-0.6017044864420804
1777656466.3815858,1777656466.3750582,0.2941995,9.9439431,-2.461469150000001,1.7535269260406494,0.24197527766227725,0.2503389716148376,-0.7600932860878118,-0.2341573849859515,-0.14862015948650306,-0.5876568417835183
1777656466.4009316,1777656466.3960583,0.48052585000000003,9.6693569,-2.912575050000001,1.8111885786056519,0.20601594448089602,0.3051948547363281,-0.770409411271295,-0.23456380174086683,-0.1474133565901069,-0.5742111669380228
1777656466.4207363,1777656466.4160583,0.59820565,9.6301303,-3.0498681500000013,1.7570679187774658,0.17373393476009372,0.32567259669303894,-0.7764963318193321,-0.23547889131220862,-0.14738207024467342,-0.5655808198550308
1777656466.460555,1777656466.455071,0.69627215,9.77723005,-3.0989014000000012,1.2548054456710815,0.10339960455894473,0.2564392387866974,-0.7828950642739247,-0.23546966781333328,-0.1456211408882805,-0.5571569233185578
1777656466.479779,1777656466.475071,0.5099458,9.100571200000001,-3.3440676500000013,1.007646083831787,0.026609901338815713,0.1993657648563385,-0.7876418634004725,-0.23460040088385514,-0.14236308021955404,-0.5516481671451171
1777656466.500357,1777656466.496071,0.46091255,8.73772515,-3.402907550000001,0.8829624652862549,-0.07153481245040892,0.1536584049463272,-0.7949885335787761,-0.23348140594318173,-0.13727140974905735,-0.5428040388782758
1777656466.5197535,1777656466.516071,0.46091255,8.34545915,-3.461747450000001,0.9236621856689453,-0.18555086851119992,0.12097031623125079,-0.8044534236123384,-0.23258643519861533,-0.1305428014220951,-0.5307700221346898
1777656466.5619998,1777656466.5550847,0.48052585000000003,8.3552658,-3.599040550000001,1.1173961162567139,-0.3205261826515198,0.06935647130012516,-0.8180307896387409,-0.232145833544755,-0.1205603725291823,-0.5122490954081356
1777656466.580184,1777656466.5750847,0.5491724,8.9632781,-4.354152600000001,1.2021232843399048,-0.32802993059158325,0.05309589952230458,-0.8266314051895371,-0.23255278047692868,-0.11546829637715038,-0.4992662584018464
1777656466.60129,1777656466.5960846,0.4314926,8.46313895,-4.569898900000001,1.4136701822280884,-0.30555424094200134,0.045369174331426655,-0.8395915149523676,-0.2346633436236309,-0.10820199319274319,-0.47781955992663516
1777656466.6210527,1777656466.6160846,0.2353596,7.708026899999999,-4.736611950000001,1.8484660387039185,-0.2582430839538574,0.03327899426221851,-0.8564119695675494,-0.23879417201677255,-0.09865884088242995,-0.4469925222058981
1777656466.6600807,1777656466.6550846,0.1176798,7.3844074499999985,-5.2171378000000015,2.891909599304199,-0.12025098502635956,-0.013102999888360486,-0.8869193286398159,-0.24818247074978278,-0.07991395489371265,-0.38130476722810197
1777656466.679993,1777656466.6750846,0.63743225,7.149047849999999,-6.864655000000001,3.3052315711975098,-0.06572300195693971,-0.058498438447713845,-0.8994646087962662,-0.2533986212478851,-0.06972230089205043,-0.349129427334576
1777656466.7002032,1777656466.6960845,0.6276256,6.903881599999999,-7.747253500000001,3.528214454650879,-0.016217596828937544,-0.12291043996810913,-0.9088215624751911,-0.2609077361259082,-0.06120347219730078,-0.3197259073031152
1777656466.7198596,1777656466.7160847,0.61781895,6.678328649999999,-8.100292900000001,3.562269687652588,0.05752410367131231,-0.1953616738319397,-0.9163906856311956,-0.2691083112597111,-0.05445691253381471,-0.2912786857575027
1777656466.7673771,1777656466.7550845,0.75511205,6.168382849999999,-8.110099550000001,3.3219432830810547,0.24641028046607968,-0.28596720099449163,-0.9284762281177408,-0.2826304988455571,-0.045091229220461645,-0.2366826482654621
1777656466.7835414,1777656466.7750845,0.9022118,5.109264649999999,-8.345459150000002,3.116590976715088,0.34900727868080134,-0.2710545659065247,-0.9329361575449335,-0.28761833026208966,-0.04337799542692917,-0.2121889996095085
1777656466.803317,1777656466.7960846,1.0395049,4.550285599999999,-8.79656505,2.89630126953125,0.4584602415561676,-0.22484704852104193,-0.9363183781877109,-0.29404362025583164,-0.04245773964510819,-0.1871993173037962
1777656466.8210716,1777656466.8160846,1.08853815,3.795173549999999,-9.18883105,2.734003782272339,0.5746427774429321,-0.17428784072399148,-0.9393660525469938,-0.30106621912239684,-0.04191604133891378,-0.15872490826615052
1777656466.8616772,1777656466.8550847,1.04931155,3.177354599999999,-9.3163175,2.5063259601593018,0.7720009088516235,-0.11171342432498942,-0.9417892359908527,-0.31368641602056896,-0.04426249577366608,-0.11258196500249462
1777656466.8817976,1777656466.8750846,1.1571847,3.206774549999999,-9.1986377,2.3328256607055664,0.7641079425811768,-0.10606827586889277,-0.942047511513898,-0.3200500608222386,-0.04122259315829762,-0.09173408543970417
1777656466.9017103,1777656466.8960845,1.0198916,2.5301156999999987,-9.1986377,2.259072780609131,0.6622473001480103,-0.13301476836204537,-0.9432572918589277,-0.32353626026151866,-0.03479043843113127,-0.06617850893395796
1777656466.940805,1777656466.9350846,0.81395195,1.5494506999999988,-9.414384,2.406548023223877,0.42768758535385126,-0.23382394015789038,-0.9435296268628943,-0.3301310940607396,-0.02422152221661171,-0.013364947726665003
1777656466.9722075,1777656466.9550846,1.12776475,0.8139519499999988,-10.2969825,2.4690651893615723,0.36239141225814814,-0.26499378681182867,0.9429529014799911,0.33213416805391904,0.019886874071753977,-0.011455664155845379
1777656466.9817166,1777656466.9750845,1.372931,0.3334260999999987,-10.267562550000001,2.532120943069458,0.32477802038192743,-0.2670013308525086,0.9417674087642542,0.33357384311127986,0.0144530589928152,-0.03992177434913872
1777656467.002621,1777656466.9960847,1.50041745,-0.5589790500000011,-9.9243298,2.6621718406677246,0.32225885987281794,-0.2561847865581513,0.939688836490634,0.33410226838597495,0.008697275062402768,-0.07269747066241826
1777656467.0218132,1777656467.0160847,1.59848395,-1.5200307500000012,-9.77723005,2.845245122909546,0.3596761524677276,-0.24496826529502874,0.9366397404770709,0.3341466586979273,0.00418240310664187,-0.10504529758304122
1777656467.0611265,1777656467.0550847,1.6475172,-1.6573238500000012,-9.9047165,2.9424169063568115,0.5320949554443359,-0.1877493709325791,0.9302494150499324,0.331003133198229,0.002723093711289613,-0.1583209915736174
1777656467.0884194,1777656467.0750847,2.18688295,-1.2160246000000012,-9.75761675,2.785799980163574,0.6244317889213562,-0.14139361679553994,0.9270720822443713,0.32871876641333436,0.0034024789601493693,-0.18019364602478963
1777656467.1059492,1777656467.0960846,2.32417605,-1.873070150000001,-9.11037785,2.636821746826172,0.6964481472969055,-0.10015829652547845,0.9218241324840817,0.3271762924177995,0.0020527091220583554,-0.20782619862513202
1777656467.1244895,1777656467.1160846,2.2947561,-2.9419950000000012,-8.52197885,2.6054751873016357,0.73850417137146,-0.08122044801712046,0.9156915223238398,0.3254114049391892,0.0003945962923524093,-0.2358310788965653
1777656467.1613448,1777656467.1550977,2.20649625,-3.226387850000001,-8.22777935,2.4464919567108154,0.7644662261009216,-0.02136294730007658,0.9066028935631635,0.3180578618551406,0.0001641942957898907,-0.277327176697973
1777656467.1821778,1777656467.1750977,2.65760215,-2.9419950000000012,-8.36507245,2.238832712173462,0.7307451963424683,0.04450407624244681,0.9031159803450972,0.3133326468713666,-0.00021722031191332726,-0.29360540060638146
1777656467.2018116,1777656467.1960976,2.9027684000000002,-3.9913065500000013,-8.26700595,2.018831968307495,0.6768261790275574,0.10156840831041328,0.8990175214777372,0.30985019267869995,-0.0007905192384089298,-0.3094506895328118
1777656467.2210405,1777656467.2160976,2.8439285,-5.138684600000001,-7.933579849999999,1.8526517152786255,0.6108596324920654,0.1276781111955642,0.8940111854427372,0.30737020719484165,-0.002392365327654753,-0.3259782701659897
1777656467.2610962,1777656467.2551122,2.6870221,-5.982056500000001,-7.551120499999999,1.7929645776748657,0.41374117136001587,0.1125094443559646,0.8804621223327462,0.30386656953689134,-0.012051340320751456,-0.3637393630770133
1777656467.2807815,1777656467.2751122,2.53992235,-6.442969050000001,-7.060787999999999,1.8441815376281738,0.2905634045600891,0.10649331659078594,0.8739091302493736,0.3021410237926765,-0.018314042038361077,-0.38033962411575484
1777656467.300235,1777656467.2961123,2.59876225,-6.227222750000001,-6.884268299999999,1.8684438467025757,0.17183800041675568,0.10609243065118787,0.8676662300448429,0.30013370215918317,-0.02394586654179438,-0.3956029190281021
1777656467.319663,1777656467.3161123,2.75566865,-6.197802800000002,-6.688135299999999,1.8315351009368896,0.08502230793237688,0.10873527824878691,0.8622717366173736,0.29794995036882427,-0.028861695276995263,-0.408509830789678
1777656467.3599982,1777656467.3551123,2.79489525,-6.462582350000001,-6.3547091999999985,1.6618613004684448,-0.0036960975266992894,0.12436733394861221,0.8513175967366936,0.29334409527057015,-0.038380581542032256,-0.4332834201961185
1777656467.3798308,1777656467.3751123,2.9812216,-7.286340950000001,-5.923216599999999,1.5641517639160156,-0.03248504549264906,0.14930707216262817,0.8469530853051273,0.2901344915119575,-0.04475190294274659,-0.44327160444836355
1777656467.402136,1777656467.3961122,2.9812216,-6.678328650000001,-5.383850849999999,1.4374780654907227,-0.06911697238683698,0.19040292501449585,0.8429838743489029,0.2873185725232,-0.04957698151726395,-0.4520711762262446
1777656467.4418619,1777656467.4361122,3.0596748,-7.070594650000001,-5.678050349999999,1.1202630996704102,-0.07847116887569425,0.2148435115814209,0.8373640785853367,0.28393990468429636,-0.05561879673381751,-0.46379529953707466
1777656467.4602952,1777656467.4551122,2.7850886,-8.149326150000002,-5.991863149999999,0.9239101409912109,-0.08750030398368833,0.19206465780735016,0.8359194955961098,0.2832302261737231,-0.05820030465967148,-0.4665104076024978
1777656467.4817965,1777656467.4751122,2.5889556000000002,-8.080679600000002,-5.736890249999999,0.7079391479492188,-0.10856872051954268,0.16351796686649323,0.8352500923416533,0.28283722033179703,-0.061091320568018095,-0.4675769889435298
1777656467.501372,1777656467.4961123,2.53992235,-8.002226400000001,-5.511337299999999,0.5032467246055603,-0.14626711606979367,0.1444213837385178,0.8348531237099223,0.2825721383302444,-0.06483720973326802,-0.4679416466881984
1777656467.5199442,1777656467.5161123,2.4908891,-8.041453,-5.246557749999999,0.34990206360816956,-0.19686046242713925,0.14438448846340182,0.8344948482335693,0.28217534955534945,-0.06924090278153204,-0.4681891901325219
1777656467.560184,1777656467.5551264,2.46146915,-8.080679600000002,-5.089651349999999,0.10998764634132385,-0.3401554524898529,0.18317259848117834,0.8362697637469587,0.2823483014483108,-0.07976011708717247,-0.4632177054410809
1777656467.5798337,1777656467.5751264,2.353596,-7.600153750000001,-4.766031899999999,-0.04126900061964989,-0.43155342340469355,0.2311257123947144,0.8396121582967351,0.2818706454583939,-0.08588564015145607,-0.45631570177338965
1777656467.6000526,1777656467.5961263,2.1770763,-7.178467800000001,-4.618932149999999,-0.24074982106685638,-0.5294893980026245,0.31563970446586614,0.844740649804173,0.28026767020440296,-0.09292670439469312,-0.4463495213584991
1777656467.640751,1777656467.6351264,2.01036325,-7.1000146000000015,-4.5600922499999985,-0.7420450448989868,-0.7128110527992247,0.55241197347641,0.859041917551655,0.2763495728573135,-0.10687633307267873,-0.4174390337518688
1777656467.6604173,1777656467.6551263,1.85345685,-7.874739950000001,-5.638823749999999,-1.045823574066162,-0.7897616028785704,0.6509022116661073,0.8677630401504977,0.27534734391892696,-0.11259588389041238,-0.39811218679725774
1777656467.6802156,1777656467.6751263,1.6867438,-7.855126650000001,-6.207609449999999,-1.3806507587432861,-0.8535768389701842,0.717616379261017,0.8773780873894406,0.27469577476875445,-0.11788007023240439,-0.3753054917464497
1777656467.7006955,1777656467.6961262,1.38273765,-7.482473950000001,-6.393935799999999,-1.6852964162826538,-0.9041632413864135,0.7549386620521547,0.886298444723357,0.2735194889920165,-0.12322201159412517,-0.3528150958805504
1777656467.7420933,1777656467.7351263,1.04931155,-7.315760900000001,-6.482195649999999,-2.082848310470581,-0.9762955904006957,0.7818489074707032,0.9027881074656467,0.2712145243659953,-0.13420517920792888,-0.3056227816529565
1777656467.760361,1777656467.7551408,0.5687857000000001,-6.825428400000002,-7.482473949999999,-2.2330479621887207,-1.0030052661895752,0.7688739895820619,0.9108583194649653,0.2710075484781738,-0.1382584111552791,-0.2788846397242543
1777656467.7804008,1777656467.7761407,0.4511059,-6.178189500000001,-7.972806449999999,-2.408864974975586,-1.0211677551269531,0.7454724907875062,0.9189878987058349,0.2711279157145589,-0.14146166891425274,-0.24887645846987508
1777656467.8055665,1777656467.7961407,0.22555295,-5.687857000000001,-8.2768126,-2.5985865592956543,-1.0364185571670532,0.7174723148345948,0.926684899724888,0.2702258740714373,-0.1451740962239714,-0.21715790427648554
1777656467.8206358,1777656467.8161407,-0.0980665,-5.462304050000001,-8.404299049999999,-2.7253315448760986,-1.05787992477417,0.6911959052085878,0.9325275914778168,0.2690096357871813,-0.1499687129823685,-0.18850859957212
1777656467.8616924,1777656467.8551407,-0.5099458,-5.187717850000001,-8.46313895,-2.7384374141693115,-1.1407527923583984,0.6608999967575074,0.9409969957394851,0.26580484047277336,-0.16225854964299888,-0.13245604500458732
1777656467.8817174,1777656467.8751407,-0.91201845,-3.932466650000001,-8.69849855,-2.6961135864257812,-1.2007495164871216,0.6415090560913087,0.9434980482306734,0.2653928012796778,-0.16889310474276847,-0.10417875591589361
1777656467.9000695,1777656467.8961406,-1.0395049,-3.461747450000001,-8.89463155,-2.63948655128479,-1.2561235427856445,0.5968382358551027,0.9451640363129368,0.26454475375413433,-0.17537561726276973,-0.07697019287688067
1777656467.9422994,1777656467.9351406,-1.24544455,-3.1675479500000012,-9.022118,-2.3567423820495605,-1.3553084135055542,0.483478218317032,0.9453056736110739,0.26031667737082154,-0.1935099227991365,-0.03444300654126728
1777656467.9632494,1777656467.9551406,-2.12804305,-3.265614450000001,-9.28689755,-2.0167429447174072,-1.427952766418457,0.44967487454414384,0.9440916657388794,0.2552741855352325,-0.20726988075788125,-0.023774217386177795
1777656467.9818063,1777656467.9751406,-2.63798885,-3.304841050000001,-9.28689755,-1.5216747522354126,-1.525869607925415,0.44283482432365434,0.9420908970694524,0.24818132957799338,-0.22470484783530423,-0.0194550936026204
1777656468.0008252,1777656467.9961407,-3.08909475,-3.196967900000001,-9.1790244,-0.9304921627044678,-1.6580348014831543,0.4671885073184969,0.9392430092295287,0.23937488137338767,-0.24530718759548956,-0.018617719917516356
1777656468.0199015,1777656468.0161407,-3.50097405,-2.598762250000001,-9.1594111,-0.34262874722480774,-1.8093419075012207,0.5147266387939455,0.9356990047323654,0.22988640220051273,-0.2668682009934933,-0.020024433192008705
1777656468.06212,1777656468.0551407,-3.81478685,-2.069203150000001,-9.100571200000001,0.6194411516189575,-2.0103189945220947,0.5990899801254275,0.9275521091621433,0.20974001818583202,-0.30814977922161435,-0.026456060287511823
1777656468.0823927,1777656468.0751407,-3.8442068000000003,-1.245444550000001,-8.8652116,0.7736210823059082,-2.0338828563690186,0.6303650140762331,0.923517973363188,0.2030310218582472,-0.3248574889737104,-0.018988651769976883
1777656468.1008594,1777656468.0961406,-3.65788045,-0.7551120500000011,-9.14960445,0.6231288909912109,-1.9922860860824585,0.6498517394065859,0.920299598266489,0.19802335761993292,-0.33730979541401007,-0.0075829535951107965
1777656468.1202571,1777656468.1161406,-3.69710705,-0.8727918500000011,-8.8848249,0.30555081367492676,-1.8602569103240967,0.6394656896591189,0.9174410863917067,0.19468396025583298,-0.3469676221625223,0.003671211025690264
1777656468.160592,1777656468.1551406,-4.0795664,-1.323897750000001,-8.1983594,-0.3451264500617981,-1.4987832307815552,0.5135030150413515,0.9112081691947489,0.1912559760692323,-0.3639775766416078,0.025320894783981834
1777656468.1822143,1777656468.1751406,-5.26617105,-1.3140911000000008,-7.9629998,-0.5676594972610474,-1.3466830253601074,0.4301419854164125,0.9076754793192139,0.1898832475540119,-0.37259845682581316,0.03521315822245227
1777656468.2000146,1777656468.1961408,-5.69766365,-1.088538150000001,-7.9433865,-0.687597393989563,-1.236559271812439,0.34744527935981767,0.9039541983123685,0.1890525715908072,-0.38110723695197257,0.043395926896186765
1777656468.2199697,1777656468.2161407,-6.14876955,-1.108151450000001,-7.81590005,-0.7139966487884521,-1.1729907989501953,0.2699952125549318,0.8998140965909727,0.18802647494856298,-0.39048771564298235,0.0499998022647514
1777656468.2621148,1777656468.2551548,-6.58026215,-1.235637900000001,-7.7080269,-0.5699254274368286,-1.2186369895935059,0.15360853075981154,0.8890635881847504,0.1842152218706963,-0.4145279860820321,0.0616217246590933
1777656468.2808566,1777656468.2751548,-7.0607880000000005,-1.2258312500000008,-7.3942141,-0.44200199842453003,-1.3106328248977661,0.12808780372142808,0.8829381275112692,0.1807989691442851,-0.42826950282897125,0.06570562144811756
1777656468.301254,1777656468.2961547,-7.3353742,-1.108151450000001,-7.12943455,-0.29829248785972595,-1.4147796630859375,0.12571908533573167,0.8766785392617925,0.17687993363891527,-0.44194867489392275,0.06949529936052229
1777656468.3201983,1777656468.3161547,-7.58054045,-0.9708583500000009,-6.7862018,-0.17557470500469208,-1.5024718046188354,0.13523286581039448,0.8701515035520081,0.1735883537630045,-0.455227642813108,0.07396781410080322
1777656468.359937,1777656468.3551548,-7.6001537500000005,-0.8041453000000008,-6.3547092,-0.0788053646683693,-1.5636398792266846,0.14255210757255574,0.857423311036672,0.16817800466358654,-0.4792453015058515,0.0828575007036206
1777656468.38079,1777656468.3751547,-7.69822025,-0.8825985000000007,-5.88399,-0.056098904460668564,-1.5309184789657593,0.13957054913043995,0.8514722963631076,0.16520960597743092,-0.4901439120220021,0.08636932399113836
1777656468.4022539,1777656468.3961546,-7.9139665500000005,-0.8531785500000008,-5.95263655,-0.04444180801510811,-1.4724401235580444,0.1349125653505327,0.8458679273314923,0.16256830404795045,-0.5000114210276608,0.0898196797633879
1777656468.4198692,1777656468.4161549,-8.1002929,-0.6766588500000007,-5.93302325,-0.04059675708413124,-1.3955496549606323,0.129709765315056,0.8404135734435558,0.15975097165822008,-0.5093999661218415,0.09325409986244293
1777656468.4602134,1777656468.4551687,-8.1983594,-0.6962721500000008,-5.687857,-0.04283718392252922,-1.1934019327163696,0.12530000507831587,-0.8316722704088466,-0.1544431614839243,0.5241234018127385,-0.09880892761328489
1777656468.4802642,1777656468.475169,-8.1395195,-0.7256921000000006,-4.99158485,-0.03379950672388077,-1.06779944896698,0.12461636960506452,-0.8284045619700946,-0.1520340467561129,0.5295514066269497,-0.10102889722012601
1777656468.5012777,1777656468.4961689,-8.1591328,-0.6864655000000006,-4.8640984,-0.03412800282239914,-0.9280306696891785,0.12429903447628032,-0.8258615012489888,-0.15040347290198827,0.5335116024451606,-0.1034260419342447
1777656468.5220125,1777656468.5161688,-8.237586,-0.7060788000000006,-4.75622525,-0.051819127053022385,-0.7722588777542114,0.12336534261703501,-0.824046790447376,-0.149459308415723,0.5360562879222158,-0.10607760583801967
1777656468.5603926,1777656468.5551836,-8.30623255,-0.6570455500000005,-4.67777205,-0.08369214087724686,-0.4460887014865875,0.11111035197973257,-0.823348554539092,-0.14776973335283192,0.5370621809971641,-0.10874501085470523
1777656468.5803654,1777656468.5751836,-8.629852,-0.6472389000000006,-4.56009225,-0.0821230337023735,-0.2737584710121155,0.09849129617214206,-0.8242810818654944,-0.14737616413763624,0.5355601939794785,-0.10961862500227765
1777656468.6039643,1777656468.5961838,-8.65927195,-0.6080123000000006,-4.6091255,-0.0850735530257225,-0.09007271379232405,0.08547892421483995,-0.8262138973704898,-0.14750745561412063,0.5323098148403904,-0.11071769214855834
1777656468.6214151,1777656468.6161838,-8.62004535,-0.5687857000000006,-4.65815875,-0.09878439456224442,0.08259672671556474,0.07660929113626479,-0.8288701378813641,-0.14812575788260232,0.5277316061633295,-0.11194823016245234
1777656468.6605623,1777656468.6551838,-8.5906254,-0.5197524500000006,-4.69738535,-0.15004567801952362,0.44383543729782104,0.06041588261723513,-0.8370778131850882,-0.15059187969536467,0.5135302123137859,-0.11362016319318097
1777656468.6823199,1777656468.6751838,-8.60043205,-0.4903325000000006,-4.9621649,-0.17102080583572388,0.6433191895484924,0.05294286459684364,-0.8430277111359639,-0.15235989357815302,0.5030833650836821,-0.11400819646757943
1777656468.701234,1777656468.6961837,-8.4925589,-0.3922660000000006,-5.18771785,-0.19689303636550903,0.8618112802505493,0.05093928053975095,-0.8502455803746131,-0.15442069880158907,0.4899455957316591,-0.11484778647503824
1777656468.7233996,1777656468.7161837,-8.2768126,-0.30400615000000064,-5.46230405,-0.22917968034744263,1.0939600467681885,0.055181361734866964,-0.8583744284300968,-0.15671037204447022,0.4746969502935852,-0.11531697747061231
1777656468.7624626,1777656468.7551837,-8.03164635,-0.2843928500000007,-5.7270836,-0.2419096827507019,1.6244269609451294,0.07009292393922786,-0.8782522704161562,-0.16145590682064673,0.4356899949297406,-0.11304498210761946
1777656468.7821584,1777656468.7751837,-7.24711435,-0.12748645000000078,-6.3350959,-0.27077242732048035,1.9236725568771362,0.07146935909986472,-0.8890682273225592,-0.1658454306784217,0.41128675369041434,-0.11356137779813771
1777656468.8016913,1777656468.7961836,-7.16866115,0.09806649999999914,-6.93330155,-0.3426911234855652,2.186596393585205,0.06595908105373356,-0.8991082852287751,-0.16968758750644067,0.3865066505598672,-0.11585777122061525
1777656468.8209505,1777656468.8161836,-7.2176944,0.20593964999999909,-7.2863409500000005,-0.4530564844608307,2.426380157470703,0.058820348232984244,-0.9095998662767073,-0.17387663233569203,0.3581939627712609,-0.11871008816109561
1777656468.8618448,1777656468.8551836,-7.0019481,0.15690639999999909,-7.453054,-0.5358501672744751,2.8081724643707275,0.042507249861955296,-0.9299059263209786,-0.17991320471029618,0.3003179136737614,-0.11276239484257648
1777656468.880106,1777656468.8751836,-5.8251501,-0.3922660000000009,-7.56092715,-0.39310356974601746,2.9802238941192627,0.023313544690608614,-0.9398551474030956,-0.18181389842930654,0.269333813050846,-0.10523927681875664
1777656468.9002872,1777656468.8961837,-4.87390505,-0.19613300000000097,-7.85512665,-0.27027618885040283,3.1454293727874756,0.01150490809231958,-0.9490828221033776,-0.18296609481380485,0.2350334518257562,-0.10258889540171655
1777656468.9213412,1777656468.9161837,-4.08937305,0.17651969999999895,-8.48275225,-0.2578894793987274,3.3034534454345703,0.016084527596830916,-0.9570502002042709,-0.18425154936508348,0.19861791298815046,-0.10323374199244456
1777656468.9610736,1777656468.9551976,-3.6284605,0.23535959999999886,-9.38496405,-0.45285937190055847,3.4565677642822266,0.06310110539197879,-0.9681836106549848,-0.18572891919825313,0.12933806675831785,-0.10675640083735441
1777656468.9796696,1777656468.9751976,-3.04986815,0.2255529499999988,-9.7478101,-0.5689433813095093,3.461287260055542,0.09373351931571917,-0.9720561663826235,-0.18576113458713023,0.0951183409850623,-0.10748074935852027
1777656469.000722,1777656468.9961975,-2.61837555,0.2059396499999989,-9.20844435,-0.6214033365249634,3.4271492958068848,0.11885922402143437,-0.9751664112612906,-0.18497725604164095,0.06294700779840003,-0.1042667698948655
1777656469.019948,1777656469.0161974,-2.02997655,0.1863263499999989,-8.9632781,-0.5426768064498901,3.3479321002960205,0.13201671838760334,-0.9776989603520037,-0.18368002078181167,0.0323601134591212,-0.09653608625336402
1777656469.063081,1777656469.0551975,-1.34351105,0.3334260999999989,-9.22805765,-0.11951804161071777,3.1584267616271973,0.13125823438167533,-0.9802433250678382,-0.18101603343042383,-0.025734952972867875,-0.07545814400413214
1777656469.0861053,1777656469.0751975,-0.18632635,0.8041452999999987,-9.91452315,0.08993538469076157,3.065915822982788,0.12804324924945792,-0.9801913339913415,-0.17918555828652655,-0.05299648967746477,-0.06564188107973894
1777656469.1019437,1777656469.0961976,0.0392266,0.6864654999999987,-10.0420096,0.2523675560951233,2.9621071815490723,0.12625330686569178,-0.9786594590323365,-0.18144452027429508,-0.07885482081251984,-0.05554697600761644
1777656469.1198554,1777656469.1161976,0.77472535,0.5295590999999987,-10.14988275,0.36636269092559814,2.8709263801574707,0.126461565494537,-0.9763302131581806,-0.18325818648943015,-0.1053271132426758,-0.045847041072151984
1777656469.1611578,1777656469.1552124,1.6867438,0.48052584999999876,-10.30678915,0.4039907157421112,2.7544801235198975,0.15553604066371884,-0.9695386622167317,-0.18474517487968306,-0.1581433742992651,-0.029234842070858403
1777656469.1815214,1777656469.1752124,2.89296175,0.4314925999999987,-10.0420096,0.36512523889541626,2.724179744720459,0.17388872802257505,-0.964790361789149,-0.1854919039288811,-0.18522196982259964,-0.021566948570383996
1777656469.1999137,1777656469.1962123,3.48136075,0.4020726499999988,-9.7478101,0.31644806265830994,2.764827013015747,0.17368941009044614,-0.9580373448384611,-0.1882841468251351,-0.21577108650255267,-0.012504566314373331
1777656469.2200096,1777656469.2162123,4.24627945,0.14709974999999884,-9.463417250000001,0.34164953231811523,2.935346841812134,0.149186939001083,-0.9486974368558467,-0.1923495522638292,-0.2509443770571343,0.0013201024421894943
1777656469.2613761,1777656469.2552123,4.67777205,-0.2157463000000011,-9.0809579,0.45451053977012634,3.3702890872955322,0.07108688354492146,-0.926499240614303,-0.19928755572687576,-0.31820428011008417,0.025093094531176058
1777656469.2813237,1777656469.2752123,5.57998385,0.10787314999999893,-8.7279185,0.47302836179733276,3.5103559494018555,0.02776421792805152,-0.9141156626449547,-0.20208793775523778,-0.3498119988408407,0.034417817885308816
1777656469.3007689,1777656469.2962124,6.4331624000000005,0.343232749999999,-8.4729456,0.43154430389404297,3.5961663722991943,-0.01869696192443415,-0.9003603412330102,-0.2047611726975971,-0.38176338538248156,0.04099799594601369
1777656469.319975,1777656469.3162124,7.09020795,0.480525849999999,-8.30623255,0.3239624798297882,3.619187355041504,-0.06603807210922286,-0.8860294291117056,-0.20676385162162672,-0.4124674586925777,0.04550995418874487
1777656469.3606775,1777656469.3552125,7.1784678,0.4020726499999991,-7.4138274,0.04255526885390282,3.4405322074890137,-0.12460035085678142,-0.8577388621905,-0.20901689067109033,-0.4666406315324305,0.05331514517798991
1777656469.3813622,1777656469.3752124,6.864655,-0.1470997500000006,-5.0406181,-0.023105043917894363,3.2730395793914795,-0.11636954545974772,-0.8433345294150028,-0.21019834054652933,-0.49097437906924846,0.05956247329843851
1777656469.4001634,1777656469.3962123,7.6295737,-0.21574630000000058,-4.95235825,-0.034423183649778366,3.146932363510132,-0.09065701067447701,-0.8281411961257803,-0.20973537305230092,-0.5156324271605115,0.06569956339683006
1777656469.420012,1777656469.4162123,8.09048625,0.16671304999999942,-4.7856452,-0.049254145473241806,3.0487520694732666,-0.05904864519834556,-0.8127656231002508,-0.20796666546433099,-0.539682987480694,0.0700298578180853
1777656469.4603546,1777656469.4552264,8.20816605,0.5785923499999995,-3.95207995,-0.13542963564395905,2.730762004852295,-0.005237705074251033,-0.7878767641012723,-0.2040691496829822,-0.5762173923947097,0.0746960737844631
1777656469.4818041,1777656469.4752264,8.83579165,0.09806649999999965,-2.8635418,-0.16976864635944366,2.5017714500427246,0.006463713012635402,-0.7763705004065857,-0.2023897106140882,-0.5919333742745295,0.07682533147304367
1777656469.5089824,1777656469.4962265,9.14960445,-0.049033250000000334,-2.73605535,-0.19808609783649445,2.2618234157562256,0.016851313412189206,-0.7670682298599151,-0.1996717540436644,-0.6046467969250957,0.07835669942592578
1777656469.5223374,1777656469.5162265,9.03192465,0.07845319999999974,-2.12804305,-0.22226038575172424,1.9841079711914062,0.02811094187200045,-0.7610506474883499,-0.19727071458019604,-0.6128978466543923,0.07900890261857398
1777656469.5607839,1777656469.5552263,8.83579165,0.15690639999999983,-1.30428445,-0.27200397849082947,1.188871145248413,0.04891005530953393,-0.7588025491830148,-0.19224962208379395,-0.6176450251139207,0.07598287382049108
1777656469.5822368,1777656469.5752265,9.2574776,0.09806649999999988,-0.9414384,-0.3161212205886841,0.7203142642974854,0.06884111464023582,-0.762572478718722,-0.18862797994566885,-0.6145259915889414,0.07252934264164336
1777656469.6014473,1777656469.5962265,9.30651085,-1.4051328563444317e-16,-1.14737805,-0.36276647448539734,0.2212401032447815,0.09944307059049604,-0.7697309219249275,-0.18531565683988663,-0.6069537865422279,0.06913404490303006
1777656469.622272,1777656469.6162264,9.2770909,-0.11767980000000014,-1.10815145,-0.3907429873943329,-0.32496967911720276,0.1327057629823685,-0.7813987627944003,-0.1824628192569129,-0.5933389339608465,0.06381381150194755
1777656469.6602833,1777656469.6552265,9.2770909,-0.029419950000000108,-0.89240515,-0.4882466793060303,-1.6280696392059326,0.16786961257457753,-0.8162960791885823,-0.1758778318188021,-0.5484388136771357,0.04407456214735329
1777656469.680359,1777656469.6752264,9.14960445,0.23535959999999975,-1.96133,-0.5471514463424683,-2.2712669372558594,0.15709024667739896,-0.8351564800385993,-0.17420853949121404,-0.5205718204590646,0.034205531158130444
1777656469.7023659,1777656469.6962264,9.20844435,-0.039226600000000306,-2.46146915,-0.5301030874252319,-2.8404712677001953,0.12877230346202886,-0.8545306127428464,-0.17415437361157984,-0.4886908487794651,0.025078683308729675
1777656469.7218676,1777656469.7162263,9.012311350000001,0.029419949999999608,-3.20677455,-0.4925743341445923,-3.305316686630249,0.12636445462703746,-0.8738859369731389,-0.17091911404515522,-0.45482647461501413,0.015585365054300056
1777656469.7605183,1777656469.755241,8.07087295,0.4020726499999994,-4.4129925,-0.4690495729446411,-4.061219215393066,0.26730385422706654,-0.9124245495470938,-0.15869131207793039,-0.3771870954197797,-0.005329531269976734
1777656469.7801886,1777656469.7752411,6.85484835,0.6962721499999993,-5.7466969,-0.4792270064353943,-4.311295032501221,0.37295731902122553,-0.9290957159404587,-0.15135395854498587,-0.33711804627905184,-0.014985083478060797
1777656469.8022635,1777656469.796241,6.6489087,0.2451662499999992,-6.668522,-0.4644753932952881,-4.4042887687683105,0.47075158357620295,-0.942028076229994,-0.14689993078302346,-0.30080676714705024,-0.02277724234625639
1777656469.8212006,1777656469.816241,6.46258235,-0.16671305000000092,-7.34518085,-0.41103965044021606,-4.342916488647461,0.5594874620437628,-0.9526662926985505,-0.14176273715854112,-0.267503558205001,-0.027786821642311128
1777656469.8621154,1777656469.855256,6.05070305,-0.15690640000000092,-7.52170055,-0.34029635787010193,-3.925503730773926,0.6903770565986638,-0.9684570457763138,-0.1294458901150996,-0.208961234035282,-0.0408645896709672
1777656469.8801773,1777656469.875256,4.67777205,0.353039399999999,-7.7276402,-0.37844225764274597,-3.572747230529785,0.7194786071777348,-0.9729718020198723,-0.12336177072836922,-0.18908485890896187,-0.048524860930678836
1777656469.9003425,1777656469.8962562,4.1384063,0.304006149999999,-8.34545915,-0.4769273102283478,-3.097465991973877,0.7167585492134098,-0.9758959944759342,-0.11760689026931746,-0.174299944464948,-0.058439341941231515
1777656469.920602,1777656469.9162562,3.69710705,0.30400614999999886,-8.9632781,-0.5981090068817139,-2.5844857692718506,0.6733514070510868,-0.9780009324179295,-0.11374393575977575,-0.16185277589431843,-0.06618286940621337
1777656469.9612117,1777656469.9552562,3.2852277500000002,-0.2353596000000012,-9.5320638,-0.47413867712020874,-1.7808667421340942,0.488756448030472,-0.982118707621143,-0.11258240060611478,-0.13691404442942667,-0.06342390442346829
1777656469.9807181,1777656469.9752562,2.77528195,-1.1081514500000014,-10.34601575,-0.24493995308876038,-1.5061016082763672,0.38068404793739336,-0.9835978756571495,-0.11311764949915402,-0.12657237836915364,-0.06098400944923804
1777656470.0009937,1777656469.996256,2.4712758,-0.47071920000000134,-10.85596155,-0.0746888592839241,-1.2726577520370483,0.2702226936817171,-0.9845993503093047,-0.11254562311418125,-0.11873793759354913,-0.061635251799325545
1777656470.0222635,1777656470.016256,2.3143694,-0.21574630000000136,-11.03248125,0.012018614448606968,-1.0753583908081055,0.15310378372669234,-0.9851921300260988,-0.11386086030548792,-0.11244108763301552,-0.0615562607460634
1777656470.0605276,1777656470.0552561,2.26533615,-0.5295591000000013,-10.81673495,0.15065205097198486,-0.766986608505249,-0.1498844325542449,-0.9855270991174419,-0.1255305845671323,-0.09926153510843531,-0.05590668020291715
1777656470.0801718,1777656470.075256,2.42224255,-0.8335652500000013,-10.14988275,0.30014103651046753,-0.6502519249916077,-0.34714594483375544,-0.9851387128207272,-0.13565546678832086,-0.0934409698610595,-0.048663086459739525
1777656470.100328,1777656470.096256,2.4712758,-0.6080123000000013,-10.0812362,0.4652596116065979,-0.5321791172027589,-0.5670717954635619,-0.9840017060158042,-0.14781331301988676,-0.09007190766702027,-0.042177227283164885
1777656470.119984,1777656470.1162562,2.53992235,-0.2745862000000013,-10.18910935,0.5661946535110474,-0.3889693915843965,-0.7998344898223877,-0.9820037198312923,-0.16196129754966393,-0.0889610108698617,-0.03902782185244883
1777656470.1609697,1777656470.155271,2.12804305,-0.10787315000000124,-10.091042850000001,0.6101162433624268,-0.19210387766361253,-1.2737375497817993,-0.9769344085613152,-0.19676018848566684,-0.0790916087537706,-0.025082005916167126
1777656470.1811879,1777656470.175271,0.83356525,-2.1574630000000012,-9.7478101,0.921800971031189,-0.27531027793884294,-1.4855973720550537,-0.9741246597709328,-0.21720737508180055,-0.06242895760128151,-0.002174554909837538
1777656470.2000573,1777656470.196271,-0.20593965,-2.235916200000001,-9.463417250000001,1.3219937086105347,-0.5263694524765017,-1.6723225116729736,0.9704143761972615,0.23735423839713715,0.04292730013638332,-0.01077733211865647
1777656470.2202039,1777656470.216271,-0.06864655,-0.03922660000000117,-9.58109705,1.4077732563018799,-0.8582759499549868,-1.8251115083694458,-0.9659685303988069,-0.25718661602500753,-0.02702689316127755,0.005421241815646715
1777656470.261514,1777656470.255271,0.7060788,1.4906107999999987,-10.56176205,0.30534008145332336,-1.323325037956238,-1.9626935720443723,-0.9556836220307395,-0.291945760074479,-0.009398858287039956,-0.036717151573094235
1777656470.28111,1777656470.275271,1.52003075,-0.05883990000000122,-9.9831697,-0.442952960729599,-1.3645095825195315,-1.9559046030044553,-0.9494893978976544,-0.3089177142265758,-0.0049334552145944965,-0.05491256811170782
1777656470.3002074,1777656470.296271,1.3533177,-1.2748645000000012,-9.0417313,-0.9710757732391357,-1.260788679122925,-1.958505034446716,-0.9426492608000991,-0.3271809677204876,-0.002110302727185389,-0.06603432514163782
1777656470.3201244,1777656470.316271,1.0395049,-1.559257350000001,-8.95347145,-1.1907215118408203,-1.0460697412490847,-2.009523391723633,-0.93485700103122,-0.34792078391528364,0.0010951956316369855,-0.0706563251890194
1777656470.360447,1777656470.3552709,0.38245935,-1.0493115500000012,-9.3555441,-0.8054925203323364,-0.5994139313697817,-2.2072086334228516,-0.9181088150175873,-0.3906459497882911,0.011441178649397338,-0.0658866081394266
1777656470.3818672,1777656470.375271,-0.4314926,0.25497289999999884,-9.28689755,-0.43883320689201355,-0.4235475659370425,-2.3095006942749023,-0.9090359591935908,-0.4119172891838695,0.016890685244161676,-0.06076575117929234
1777656470.4013972,1777656470.396271,-0.69627215,0.25497289999999884,-9.6889702,-0.08912103623151779,-0.31312328577041654,-2.3857343196868896,-0.900208586842375,-0.43106088561746814,0.02344866045030314,-0.05710668427622679
1777656470.421049,1777656470.416271,-0.5295591,-0.049033250000001236,-10.13026945,0.14638301730155945,-0.27277615666389493,-2.4427683353424072,-0.8901401584732869,-0.451183661813585,0.028840402324538605,-0.057026597122701285
1777656470.4607725,1777656470.455271,-0.3530394,0.03922659999999871,-10.52253545,0.17077341675758362,-0.2942072749137882,-2.533567428588867,-0.867864297554331,-0.49180753296575064,0.03658556890743591,-0.05998672933565284
1777656470.4814048,1777656470.475271,-0.1569064,-0.14709975000000125,-10.18910935,0.15835951268672943,-0.3228254318237308,-2.5817925930023193,-0.8554451908912016,-0.512904589586832,0.04394868674872132,-0.05666498296956839
1777656470.5032635,1777656470.496271,-0.22555295,-0.4412992500000012,-9.79684335,0.22069929540157318,-0.3571901917457584,-2.6260125637054443,-0.8434865413122373,-0.5321720820742433,0.05089077211118605,-0.052282492287682295
1777656470.5217402,1777656470.5162709,-0.1176798,0.17651969999999886,-9.4536106,0.27151528000831604,-0.34570235013961825,-2.646225929260254,-0.8315724755337539,-0.5507129075247011,0.053207485126128946,-0.048697792012646575
1777656470.5616288,1777656470.555271,0.10787315,0.6080122999999988,-8.93385815,0.3000850975513458,-0.10182833671569856,-2.576432704925537,0.8095399011190735,0.5835247378981215,-0.0529804183453585,0.03656643309102116
1777656470.5806599,1777656470.575271,-0.48052585000000003,-0.3530394000000011,-8.924051500000001,0.30680587887763977,0.03431271389126748,-2.427426338195801,0.8011364132565788,0.5951808072022268,-0.05382603356071431,0.03229569946000238
1777656470.6021469,1777656470.596271,-0.95124505,-0.3040061500000012,-9.71839015,0.28299468755722046,0.09084904193878146,-2.22318959236145,0.7934680387312676,0.605343207422549,-0.05497941899009473,0.0307463205416239
1777656470.640072,1777656470.635271,-0.77472535,-0.23535960000000125,-10.1008495,-0.023490799590945244,0.0643772184848783,-1.898321270942688,0.7760635370035628,0.6275775389635769,-0.0485422424493843,0.03892903569220428
1777656470.6602335,1777656470.655271,-0.4707192,0.5785923499999988,-10.2381426,-0.3189658522605896,0.05434518679976441,-1.8226388692855835,-0.7661759780689091,-0.6397059155579632,0.03921658193132818,-0.0470401098204735
1777656470.681945,1777656470.675271,-0.3530394,0.38245934999999875,-10.2773692,-0.642088770866394,0.09084975719451882,-1.7743650674819946,-0.7572699603434068,-0.6502044570245941,0.02892117065233115,-0.054221186956270005
1777656470.7099855,1777656470.696271,-0.28439285000000003,0.4314925999999987,-10.179302700000001,-0.9142346382141113,0.15834964811801888,-1.724034309387207,-0.7481117574069218,-0.6605215225663493,0.0177092060858393,-0.06104507085726032
1777656470.7398376,1777656470.735271,0.30400615,0.7551120499999987,-10.2969825,-1.389197826385498,0.3413017094135282,-1.7572436332702637,-0.722446637985121,-0.686724069155286,-0.011720646251157901,-0.07964630913141398
1777656470.7606356,1777656470.7552845,0.24516625,1.1179580999999987,-10.11065615,-1.5494688749313354,0.44056656956672646,-1.878077745437622,-0.7064404714174483,-0.7021795432106694,-0.024210256779675497,-0.08543777213043174
1777656470.7800097,1777656470.7752845,0.06864655,0.7060787999999989,-9.4732239,-1.4906163215637207,0.5241051316261289,-2.041970729827881,-0.6898020848740446,-0.7183522462027028,-0.030145462573904304,-0.0850551889372895
1777656470.801687,1777656470.7962844,-0.02941995,0.3138127999999989,-9.1594111,-1.2411184310913086,0.5680708885192869,-2.2103304862976074,-0.6731774287412318,-0.7341610501101584,-0.03286807685419289,-0.08221551835511476
1777656470.8207984,1777656470.8162847,-0.1569064,0.33342609999999884,-9.4732239,-0.9007003307342529,0.5817568302154538,-2.4002959728240967,-0.6541605205814391,-0.7514813193747295,-0.033870028878760707,-0.0787569748478735
1777656470.8605473,1777656470.8553,-0.04903325,0.7943386499999989,-9.6497436,-0.22458304464817047,0.5616376996040341,-2.725597620010376,-0.6168907563607613,-0.7834374838880763,-0.032933211992561606,-0.06772670893835918
1777656470.8800595,1777656470.8753,0.6668522,1.7750036499999988,-9.9243298,0.07297763973474503,0.5744735002517697,-2.7723827362060547,-0.5997354625173725,-0.7973570601470975,-0.031947696578254824,-0.059316425347412924
1777656470.9009824,1777656470.8962998,0.55897905,1.735777049999999,-9.610517,0.30397945642471313,0.5891587138175961,-2.7107086181640625,-0.5861544790239265,-0.8080518533826015,-0.029993980301403753,-0.0507492868010037
1777656470.92069,1777656470.9162998,0.4314926,1.510224099999999,-9.2574776,0.5032089948654175,0.6032030582427975,-2.5291225910186768,-0.5763803626184998,-0.8157572445202109,-0.02646009077199699,-0.04031946424367746
1777656470.9610615,1777656470.9552999,0.46091255,1.7946169499999989,-9.28689755,0.7229523658752441,0.6129335165023801,-1.8580641746520996,-0.5669452116731595,-0.8231278204786915,-0.023170919341111706,-0.022289607707698812
1777656470.9841015,1777656470.9752998,0.83356525,2.000556599999999,-9.8458766,0.717197060585022,0.6092699766159055,-1.443922758102417,-0.5656953004246241,-0.8241426832727509,-0.023574866144385153,-0.014895985088563712
1777656471.0021067,1777656470.9963,0.89240515,1.833843549999999,-10.0812362,0.6339071989059448,0.597647726535797,-1.061821699142456,-0.5656632991119362,-0.8241814604770605,-0.02582993165172667,-0.00909763016211422
1777656471.0405946,1777656471.0353,0.980665,1.441577549999999,-10.20872265,0.318138062953949,0.5271672010421753,-0.32645648717880255,-0.5728314465767983,-0.8190618121549597,-0.03160016113027986,-0.0018197523750461708
1777656471.0613976,1777656471.0553,0.83356525,0.8041452999999987,-10.14988275,0.15943507850170135,0.447372168302536,-0.03321653231978422,-0.5781780373496489,-0.8151964234961004,-0.03411698510751927,-0.0009897337258289146
1777656471.0814197,1777656471.0753,0.97085835,0.7551120499999987,-10.11065615,0.019878696650266647,0.3384512960910797,0.2217973172664642,-0.5853002297540005,-0.8100217373759939,-0.03587950200729378,-0.0010427674712822365
1777656471.1008089,1777656471.0963,1.1179581,0.6570455499999988,-10.03220295,-0.08550196141004562,0.2092516273260117,0.45897945761680603,-0.5944832613216688,-0.8032583308161915,-0.03685415525810986,-0.00273445112397549
1777656471.121918,1777656471.1162999,1.0983448,0.6472388999999987,-9.97336305,-0.16584746539592743,0.06535590440034875,0.6960336565971375,-0.6062150837152476,-0.7943896980865804,-0.037511078252481345,-0.006418633683530955
1777656471.1602473,1777656471.1553,0.8825985000000001,1.0002782999999988,-9.93413645,-0.24521121382713318,-0.23582272231578813,1.2273863554000854,-0.6370531585817059,-0.7698609809391234,-0.03537364222555977,-0.01503491284381143
1777656471.180307,1777656471.1753,0.7453054,1.676937149999999,-9.639936950000001,-0.2617674767971039,-0.3686506748199461,1.5569889545440674,-0.6576650316727807,-0.7522125035274307,-0.03516339328254427,-0.020410571395539725
1777656471.2003613,1777656471.1962998,0.79433865,1.6965504499999988,-9.7478101,-0.29066768288612366,-0.4672720432281492,1.9579542875289917,-0.6827310675369308,-0.7293582341404972,-0.035635668969749776,-0.025395960474395036
1777656471.2403986,1777656471.2352998,1.0198916,1.5494506999999988,-9.6497436,-0.3429425358772278,-0.47241872549056974,2.7627313137054443,-0.7340674325472569,-0.6772478760321897,-0.03958150652438133,-0.030226200962519073
1777656471.2609904,1777656471.2552998,1.22583125,0.8727918499999989,-9.6497436,-0.32173895835876465,-0.40516528487205467,3.1242828369140625,-0.7610790097363108,-0.646733931710525,-0.04001750990315391,-0.029875766336509884
1777656471.2824128,1777656471.2752998,0.79433865,0.8139519499999989,-9.551677100000001,-0.2521536350250244,-0.3350167274475093,3.4565446376800537,-0.7879467443658306,-0.6138322037211107,-0.03926570648020947,-0.028428120106388968
1777656471.300054,1777656471.2963,0.32361945000000003,0.9218250999999988,-9.34573745,-0.14095941185951233,-0.26968026161193803,3.7061445713043213,-0.8137135777964699,-0.5794438801403158,-0.03844121823880332,-0.02524432248884026
1777656471.320192,1777656471.3163,0.1765197,0.7747253499999989,-9.3555441,-0.03871292993426323,-0.21377463638782454,3.80122447013855,-0.8352277050905068,-0.5480734540614479,-0.038147997939678144,-0.023556312436236834
1777656471.3643692,1777656471.3553133,0.02941995,0.8041452999999987,-9.67916355,-0.02731793001294136,-0.15104848146438554,3.5309159755706787,-0.8708102677929854,-0.48911932290812354,-0.04222962372053174,-0.025853903856673206
1777656471.379975,1777656471.3753133,0.34323275,2.0397831999999987,-10.0616229,-0.12797421216964722,-0.09677695482969242,3.3453261852264404,-0.8872549442289663,-0.4580024219990827,-0.04740062905849128,-0.027669943062597506
1777656471.4002655,1777656471.3963132,1.01008495,1.5592573499999989,-9.9635564,-0.24542132019996643,-0.018115472048520646,3.230046033859253,-0.9027559958830934,-0.42590552886485433,-0.05324539994977669,-0.028302292551336018
1777656471.4210114,1777656471.4163132,1.67693715,0.4020726499999988,-9.81645665,-0.31178489327430725,0.07458957284688988,3.206247329711914,-0.9181698003916432,-0.3911664208231019,-0.057666752600933194,-0.025051836533015168
1777656471.462146,1777656471.4553132,1.52003075,-0.5785923500000012,-9.6889702,-0.09868382662534714,0.21375229954719585,3.3979997634887695,-0.9466982501853815,-0.31580442567729267,-0.06265349350273901,-0.010223872577181341
1777656471.4823155,1777656471.4753132,0.9414384,0.26477954999999886,-9.3359308,-0.00785813294351101,0.2872566878795628,3.581772804260254,-0.9589207278547222,-0.27519069482801845,-0.06836234026791128,-0.00822858455244645
1777656471.5014956,1777656471.4963133,0.38245935,1.108151449999999,-9.40457735,-0.0741352066397667,0.31612163782119795,3.7076163291931152,-0.9679065448132586,-0.24017000124460658,-0.07280107844135779,-0.013239863579366146
1777656471.5203426,1777656471.5163133,0.00980665,1.431770899999999,-9.62032365,-0.3121458888053894,0.2591299414634709,3.6943583488464355,-0.9748924738657988,-0.20820631825937402,-0.07465545396988006,-0.02571685496420432
1777656471.5611925,1777656471.555313,0.28439285000000003,1.520030749999999,-9.79684335,-1.0260910987854004,-0.13221763074398002,3.244725227355957,-0.9837173749508983,-0.1556778465647043,-0.06900772292832989,-0.05746710785255505
1777656471.5830986,1777656471.5753133,0.0588399,0.5001391499999988,-10.30678915,-1.2785862684249878,-0.3866451084613796,2.953073740005493,-0.9868930481804219,-0.13036017550704926,-0.06385195916861441,-0.07050718690499695
1777656471.6001484,1777656471.5963132,0.2549729,0.13729309999999878,-9.91452315,-1.3931063413619995,-0.5836627483367917,2.7338192462921143,-0.9892896480045521,-0.10568197357309078,-0.06054776472487593,-0.08044427263358704
1777656471.6205683,1777656471.6163132,0.69627215,-0.009806650000001148,-9.36535075,-1.3628777265548706,-0.6623380780220028,2.626112461090088,-0.9913870311547569,-0.07826033838254876,-0.0610013310748638,-0.0854746248982724
1777656471.6598494,1777656471.6553133,1.2944778000000001,-0.1667130500000011,-9.0809579,-0.9120825529098511,-0.4340933263301846,2.732957601547241,-0.9938365447728743,-0.01908420560978674,-0.06838768939901077,-0.08513424286867483
1777656471.6803107,1777656471.6753132,1.4709975,0.7060787999999989,-9.2967042,-0.6380305290222168,-0.24432079493999448,2.814976930618286,-0.9937939856340561,0.007579966294346934,-0.07370595818224074,-0.08296680032996367
1777656471.7012093,1777656471.6963131,1.46119085,1.0787314999999988,-9.65955025,-0.3912765681743622,-0.018725521862506513,2.8873841762542725,-0.9926849849632328,0.03400079854408051,-0.08245004103563928,-0.08137848032577555
1777656471.7216213,1777656471.7163131,1.6279039,1.0100849499999986,-9.77723005,-0.2380547970533371,0.26194050908088723,2.9776182174682617,-0.9900404217739404,0.06383514331687495,-0.09561502273427738,-0.08125764677195459
1777656471.7636094,1777656471.7553132,2.24572285,0.5982056499999988,-9.48303055,-0.16806484758853912,0.7748272418975835,3.3073277473449707,-0.9811892949646617,0.1304912420006351,-0.11904027336944804,-0.07790389286812684
1777656471.7824914,1777656471.7763133,2.157463,-0.029419950000001107,-9.0417313,-0.11570949107408524,0.838177859783173,3.509413719177246,-0.9754174086239187,0.1667359947620335,-0.12571533799641318,-0.07039631237900298
1777656471.8023763,1777656471.7963133,1.9417167,-0.15690640000000114,-9.36535075,-0.004535902291536331,0.7743539810180669,3.7609951496124268,-0.9679323062055647,0.20593896989240423,-0.13067105134108625,-0.060176969221186406
1777656471.8200731,1777656471.8163133,1.75539035,-0.6374322500000013,-9.80665,0.15755417943000793,0.616896510124207,4.075377941131592,-0.9583708959509487,0.24807626731114463,-0.1337242604136358,-0.04583899614925508
1777656471.8620863,1777656471.855326,1.4709975,-1.5200307500000012,-9.77723005,0.6282219886779785,0.27191621065139826,4.738561630249023,0.9309516024364872,-0.3358278042392152,0.14293870843435727,0.010831687399545558
1777656471.881278,1777656471.875326,2.2555295,-0.6472389000000013,-9.87529655,0.7566745281219482,0.21040919423103394,4.94973087310791,0.9146304745270637,-0.376199223991416,0.1480600082653922,0.0018635683798810952
1777656471.9002013,1777656471.896326,2.9027684000000002,0.019613299999998807,-9.73800345,0.6731315851211548,0.24277301132679047,4.996654987335205,0.8998561713486332,-0.4086821221099186,0.15243476792881175,0.00119811518736497
1777656471.924027,1777656471.916326,3.46174745,0.09806649999999885,-9.4536106,0.44363418221473694,0.3272291719913489,4.852804660797119,0.8868240149630131,-0.4349281324316455,0.15613048492871165,0.0019894170824063654
1777656471.9614398,1777656471.9553387,4.0403398,-0.8531785500000011,-9.09076455,-0.11045707762241364,0.40600574016571095,3.9394829273223877,0.870460175689669,-0.4669671023503991,0.1553854221658373,0.009807060677215275
1777656471.981198,1777656471.9753387,4.42279915,-1.8240369000000012,-8.71811185,-0.4132169485092163,0.37981581687927285,3.2938311100006104,0.8659831576377736,-0.47601709145984383,0.15205308916865481,0.01899361471891887
1777656472.002635,1777656471.9963388,3.67749375,-1.245444550000001,-9.36535075,-0.6971648931503296,0.32228466868400607,2.6371681690216064,0.8616040913572923,-0.48511678114874024,0.14689631819813323,0.026862056959454993
1777656472.020641,1777656472.0163388,2.5889556000000002,-0.9610517000000013,-9.83606995,-0.8867427110671997,0.19406861066818262,2.035637617111206,0.858382553840425,-0.4927394081950419,0.1395638863704928,0.030152752696123834
1777656472.0605156,1777656472.0553524,1.91229675,-1.382737650000001,-9.85568325,-0.871918797492981,-0.2267415821552275,1.2683892250061035,0.8527411062598621,-0.5068916554676433,0.1227996412431396,0.028525487244475584
1777656472.0810065,1777656472.0753524,1.79461695,-1.7259704000000011,-9.7870367,-0.799402117729187,-0.431066334247589,1.0770734548568726,0.8494383933905562,-0.5144992820821126,0.11347404110266879,0.029471114110115135
1777656472.1005254,1777656472.0963523,1.89268345,-1.4513842000000012,-9.6889702,-0.749921441078186,-0.554703116416931,0.9715511798858644,0.8457863578017136,-0.521913455811708,0.10599252760343636,0.03189617048215227
1777656472.1202369,1777656472.1163523,2.12804305,-1.2552512000000011,-9.3555441,-0.7197244167327881,-0.5641630887985228,0.8978633284568788,0.8427982589178369,-0.5273339109806652,0.1015928496025063,0.03590172704121011
1777656472.1666596,1777656472.1553524,2.2751428000000002,-1.235637900000001,-9.2574776,-0.7100361585617065,-0.2908453941345214,0.7399448156356812,0.8376404025139945,-0.5351650400126685,0.09801925427556057,0.04846815259214544
1777656472.1827705,1777656472.1753523,1.44157755,-1.010084950000001,-9.5909037,-0.6491318941116333,-0.12211892008781425,0.6455640196800232,0.8366341434441077,-0.5365627346381603,0.09841557819421107,0.04957938876047733
1777656472.2014909,1777656472.1963525,0.9610517000000001,-1.1081514500000014,-9.69877685,-0.46662911772727966,-0.02310041896998876,0.519415020942688,0.8370912361895533,-0.5360267190453271,0.0992096743489475,0.04594626513356035
1777656472.2463367,1777656472.2353523,1.04931155,-1.1767980000000013,-9.7870367,-0.10833028703927994,-0.026650739833712557,0.1680191457271576,0.8417711753475561,-0.5293811413259673,0.0958701299208139,0.04456247021178863
1777656472.2623587,1777656472.2553525,1.89268345,-0.7649187000000013,-9.7478101,-0.05397151783108711,-0.05754785984754563,-0.05544633045792579,0.8459149524526557,-0.5230418848118625,0.09306105763672232,0.04684783347189455
1777656472.2817645,1777656472.2753525,1.50041745,-0.6766588500000011,-9.65955025,-0.08439747244119644,-0.0805761963129044,-0.2900501787662506,0.8506958474947511,-0.5154840929675981,0.0894622865512642,0.0508844203816773
1777656472.3014755,1777656472.2963524,1.22583125,-0.8041453000000012,-9.610517,-0.1760009378194809,-0.09984648972749717,-0.5242438912391663,-0.8566654639636219,0.5058456276404428,-0.08462844191203758,-0.05552036264812926
1777656472.3220036,1777656472.3163524,1.32389775,-0.9708583500000011,-9.5909037,-0.2752920985221863,-0.12550844252109536,-0.7595498561859131,-0.8639172834678921,0.49371171077205833,-0.08002890553788192,-0.05908509330105357
1777656472.3665721,1777656472.3553524,1.4709975,-1.0983448000000013,-9.85568325,-0.29108238220214844,-0.11939670145511642,-1.229506492614746,-0.8812062649658718,0.46229431394525844,-0.07662752954575822,-0.06235148430065261
1777656472.3821976,1777656472.3753524,2.0593965,-0.36284605000000125,-10.2185293,-0.21516835689544678,-0.0884677320718767,-1.4904029369354248,-0.8914635969059185,0.44230358915343904,-0.07555027511930544,-0.06286768918089213
1777656472.4012663,1777656472.3963523,1.77500365,0.06864654999999881,-9.73800345,-0.1326044648885727,-0.052180748432874895,-1.752280592918396,-0.9023769507049848,0.41951249480807457,-0.07352735497538773,-0.0657178332464018
1777656472.4212763,1777656472.4163523,1.34351105,0.27458619999999884,-9.7281968,-0.1354859322309494,-0.02436856180429483,-1.9692542552947998,-0.9123354444048706,0.3971901678072852,-0.0687284735367764,-0.07183595482133204
1777656472.462638,1777656472.4553523,1.24544455,0.48052584999999876,-9.9635564,-0.34760066866874695,-0.12560240924358396,-2.306535005569458,-0.9326391876909939,0.3476924295452969,-0.05072169362819446,-0.08198432664515445
1777656472.4800308,1777656472.4753523,1.9024901,-0.25497290000000117,-9.69877685,-0.392764687538147,-0.28451639413833646,-2.47880220413208,-0.9435456146616008,0.31877582412429467,-0.038853277762714036,-0.08120387807138385
1777656472.5004475,1777656472.4963524,1.32389775,-0.5589790500000011,-9.551677100000001,-0.3631894290447235,-0.4776123166084293,-2.6510608196258545,-0.953969500750584,0.2878858517498669,-0.026621367538228483,-0.07971970139388079
1777656472.5200126,1777656472.5163524,0.8041453000000001,-0.11767980000000115,-9.3947707,-0.29606083035469055,-0.6438544392585758,-2.8125061988830566,-0.9634488573553133,0.25582274083185363,-0.01606612173812248,-0.0778646535105322
1777656472.5603588,1777656472.5553668,0.73549875,0.24516624999999886,-9.414384,-0.14514395594596863,-0.7270887494087223,-3.0983738899230957,-0.9793534037918482,0.18621536649554266,0.00012534750178351986,-0.07868120519066511
1777656472.5810971,1777656472.5753667,1.372931,1.1473780499999988,-9.1986377,-0.27103304862976074,-0.6418700814247136,-3.2460334300994873,-0.9845772433374735,0.14834083473597037,0.007249506717960605,-0.09246671457428951
1777656472.6010585,1777656472.5963666,1.2944778000000001,1.892683449999999,-8.8848249,-0.625159502029419,-0.46185865998268166,-3.375300168991089,-0.9874673159218369,0.10988733393930639,0.011393752369880869,-0.11270872296663015
1777656472.6209595,1777656472.6163666,0.99047165,2.0397831999999987,-8.9436648,-1.0538641214370728,-0.20735119283199352,-3.435192346572876,-0.9886954476686172,0.07329388755768773,0.013063478062072904,-0.13014862022685952
1777656472.6614377,1777656472.6553667,0.36284605000000003,1.4611908499999988,-9.14960445,-1.2722837924957275,0.21722096204757652,-3.1868503093719482,-0.9901955695944842,0.01643121630380151,0.013035072419149767,-0.13810443864431082
1777656472.6817331,1777656472.6753666,-0.5099458,0.9610516999999988,-8.9828914,-0.9736765623092651,0.3454930186271664,-2.879777669906616,-0.9911939304537176,-0.00477030451324928,0.011050898719323347,-0.13187006507944504
1777656472.7001636,1777656472.6963668,-0.6080123,1.4808041499999989,-9.50264385,-0.5497115850448608,0.4405008256435391,-2.4939539432525635,-0.9918156430923515,-0.021161142006259626,0.00704001577103238,-0.12571544998225082
1777656472.7200637,1777656472.7163668,-0.22555295,2.2261095499999985,-10.395049,-0.1531810164451599,0.5304363369941709,-2.0795187950134277,-0.9920478450452088,-0.03623642168935742,0.0013640696433255043,-0.12052441328758448
1777656472.7604756,1777656472.7553809,0.24516625,2.6183755499999988,-10.67944185,0.43536922335624695,0.6545183658599851,-1.411113977432251,-0.992738852990863,-0.061577300211294705,-0.008486852882643895,-0.10298436380937734
1777656472.7803662,1777656472.7753808,0.42168595,1.8730701499999989,-10.0420096,0.6730313301086426,0.6489423513412474,-1.1753655672073364,-0.9930137346531926,-0.07274154897675728,-0.011263084116315226,-0.09222544539751343
1777656472.8002918,1777656472.7963808,0.38245935,1.7651969999999988,-9.79684335,0.8446933031082153,0.5914340615272521,-0.9989648461341859,-0.9931581345435629,-0.08158783040192269,-0.01242029651137872,-0.08262010623829283
1777656472.8402526,1777656472.8353808,0.392266,1.725970399999999,-10.002783,0.9378811120986938,0.2702399492263793,-0.7554653882980347,-0.9929899446196735,-0.09586786194705543,-0.0041116229635699405,-0.06901751579507531
1777656472.8612864,1777656472.8553808,0.1372931,1.4808041499999989,-10.20872265,0.8482576608657837,-0.026539336889982303,-0.6655490398406982,-0.9926536360174547,-0.10107721779441359,0.0069506004011272516,-0.06613504440409072
1777656472.8820114,1777656472.8753808,0.02941995,1.3238977499999989,-9.65955025,0.7043935060501099,-0.38053023815155035,-0.596974790096283,-0.9919442085717722,-0.10596969790878058,0.021444076700226328,-0.06600955825119002
1777656472.9018447,1777656472.896381,-0.00980665,1.569063999999999,-9.28689755,0.4819175899028778,-0.7832474112510682,-0.5575624704360961,-0.9905173521065513,-0.11047618340125925,0.039193487403270416,-0.0716537411590424
1777656472.921368,1777656472.916381,-0.02941995,2.010363249999999,-9.24767095,0.1405123770236969,-1.2019000053405762,-0.5422691106796264,-0.9880096211072007,-0.11477707632849443,0.05962228169453957,-0.08431129743175292
1777656472.9604013,1777656472.9553957,0.02941995,2.167269649999999,-9.3751574,-0.7864154577255249,-1.9701002836227417,-0.547343850135803,-0.9784427084591287,-0.12375483082064276,0.10743259409949445,-0.12566958994431365
1777656472.9798942,1777656472.9753957,-1.12776475,2.608568899999999,-9.30651085,-1.3098998069763184,-2.320660352706909,-0.5785592198371884,-0.9706199334383816,-0.1294600262427102,0.13429673444763351,-0.15199155744320178
1777656473.000916,1777656472.9963956,-1.69655045,2.657602149999999,-9.5712904,-1.7728168964385986,-2.6139578819274902,-0.63427859544754,-0.9613822585612088,-0.13303220321365433,0.1606426513176688,-0.17955646579697268
1777656473.0202007,1777656473.0163956,-1.85345685,2.7556686499999987,-9.75761675,-2.183696985244751,-2.8034117221832275,-0.7175630331039425,-0.9501517022896728,-0.13896532678171353,0.18322548445705494,-0.2105440629273745
1777656473.0606124,1777656473.0553956,-1.87307015,3.2950343999999987,-9.7870367,-2.868506908416748,-2.6947572231292725,-0.9217782616615292,-0.9243342737814689,-0.15653513634682342,0.21443941316718082,-0.27407779822940936
1777656473.0803041,1777656473.0753956,-3.4911674,3.8540134499999987,-8.81617835,-3.074093818664551,-2.391221761703491,-0.9884089231491086,-0.9117084198498526,-0.16625388737903657,0.22166887699664048,-0.30333201459340187
1777656473.1010506,1777656473.0963957,-4.06975975,4.1580195999999985,-8.1002929,-3.1551856994628906,-2.0195860862731934,-1.0303050279617307,-0.8985823754938861,-0.17573305498181077,0.23065858602667155,-0.32933907228068343
1777656473.1402347,1777656473.1353958,-4.42279915,4.520865649999999,-8.1591328,-3.1344001293182373,-1.517886519432068,-1.0217691659927366,-0.8674565388076552,-0.1922467510214699,0.24577242832886007,-0.3875000044836995
1777656473.1599164,1777656473.1553957,-5.07003805,5.4132707999999985,-7.453054000000002,-3.2997212409973145,-1.3342860937118532,-0.9684802293777465,-0.8464564052432929,-0.20400233648715346,0.2473240299535066,-0.425118130568365
1777656473.1799867,1777656473.1753957,-4.9425516,5.982056499999999,-6.727361900000001,-3.614576816558838,-1.1370584964752197,-0.896863043308258,-0.82263114738278,-0.21657314212733533,0.24469715781536622,-0.465292779249652
1777656473.200895,1777656473.1963956,-4.8837117,5.972249849999999,-6.374322500000001,-3.968621253967285,-0.9370174407958985,-0.7926843762397765,-0.7976445795418461,-0.2285540093735204,0.2395920613916696,-0.5041049827614192
1777656473.2201622,1777656473.2163956,-5.3152043,5.864376699999999,-6.011476450000001,-4.277224540710449,-0.7394282817840577,-0.6444090008735656,-0.7723234736500729,-0.2388069525362668,0.23177910022739784,-0.5410786820483731
1777656473.264009,1777656473.2554111,-5.73689025,5.8153434499999985,-5.285784350000001,-4.365864276885986,-0.33658444881439215,-0.26870003342628473,-0.7341202217980518,-0.2522635462792651,0.20849947483662923,-0.5949441756657828
1777656473.2872643,1777656473.2754114,-5.8447634,6.3547092,-3.7461403000000004,-4.091804027557373,-0.10390721261501312,-0.030954133719205842,-0.7212861236423055,-0.25551332112598246,0.19295013832370778,-0.6141901291042453
1777656473.3051815,1777656473.2964113,-5.5897905,6.3350959,-2.9714149500000007,-3.6194653511047363,0.14773175120353702,0.2429944574832916,-0.7141104184042801,-0.2570195397486891,0.1750158131970287,-0.627181577890182
1777656473.3216312,1777656473.3164113,-5.0798447,6.30567595,-1.9907499500000008,-3.0526468753814697,0.4089996218681336,0.5191091299057007,-0.7108352337975306,-0.2581169946959604,0.15558783849991273,-0.635516570950011
1777656473.361322,1777656473.3554113,-4.97197155,6.8058151,-1.4611908500000008,-2.0093226432800293,1.0019060373306277,1.0771795511245725,-0.7062014102156412,-0.26022726539790353,0.10453798556883025,-0.650102413567416
1777656473.3801086,1777656473.3754113,-5.65843705,8.52197885,-1.5200307500000012,-1.662587285041809,1.2755385637283327,1.3200579881668089,-0.7048726201035451,-0.2604485710028587,0.07706205214554095,-0.6552728984248093
1777656473.4003685,1777656473.3964112,-5.59959715,8.3552658,-1.5788706500000012,-1.3793641328811646,1.486949682235718,1.5296095609664915,-0.7056291225277237,-0.2589467916241479,0.04966389981256579,-0.6576987133967364
1777656473.420287,1777656473.4164112,-5.2563644,8.28661925,-1.6082906000000012,-1.1033598184585571,1.6031953096389773,1.698672294616699,-0.7094541505404637,-0.25569579204573284,0.02445546414099518,-0.656274638002005
1777656473.4604094,1777656473.455425,-5.07003805,8.73772515,-1.480804150000001,-0.48243752121925354,1.634906888008118,1.9229514598846433,-0.7215877015310295,-0.24729626982754233,-0.023060115271873863,-0.6462383267898906
1777656473.4822497,1777656473.475425,-3.85401345,8.7279185,-1.1375714000000012,-0.19192157685756683,1.6189130544662478,1.9928534030914304,-0.728382369504019,-0.24306959793845237,-0.046577661439180976,-0.6389106477502209
1777656473.502436,1777656473.4964252,-2.93218835,8.6494653,-1.245444550000001,0.0687943547964096,1.6223117113113406,2.0418851375579834,-0.7353355647339702,-0.2398621043610704,-0.0718496450792699,-0.629750273228075
1777656473.5215228,1777656473.5164251,-2.2751428000000002,9.0025047,-1.304284450000001,0.2625269889831543,1.6809405088424685,2.077932596206665,-0.7414103147475831,-0.23774610413387032,-0.0989540303209784,-0.6196738134198436
1777656473.5622475,1777656473.555438,-1.89268345,9.38496405,-1.461190850000001,0.5301563739776611,1.9115543365478518,2.1789734363555904,-0.7553620449629954,-0.23185381353569107,-0.15531163449628657,-0.5929167617535962
1777656473.5798876,1777656473.5754383,-1.20621795,9.2378643,-2.481082450000001,0.6942628622055054,1.995654344558716,2.263052940368652,-0.7650533477925529,-0.22703889663849008,-0.1823188272486398,-0.5743749295323263
1777656473.6002736,1777656473.5964382,-0.6668522,9.09076455,-2.7360553500000013,0.9331458806991577,2.0426518917083745,2.374334573745727,-0.7774777412284981,-0.22195750111548018,-0.2084364778929749,-0.5502885282071357
1777656473.6201248,1777656473.6164382,0.0392266,9.24767095,-3.1185147000000013,1.3019099235534668,2.0353963375091557,2.4983782768249507,-0.7938177811262146,-0.21671730695319522,-0.23050351149307827,-0.5193795052022829
1777656473.6601636,1777656473.6554382,0.42168595,9.18883105,-3.5696206000000013,2.121999979019165,1.7705767154693606,2.5773868560791016,-0.8203343664151805,-0.20592390004013236,-0.264915733773419,-0.4631053105609535
1777656473.6804357,1777656473.6754382,2.3732093,9.414384,-4.344345950000001,2.123342275619507,1.691537141799927,2.5187032222747803,-0.8223144090432988,-0.19873014655211038,-0.289371604496071,-0.44784976950146654
1777656473.7023714,1777656473.696438,3.5303940000000003,9.81645665,-4.922938300000001,1.7947523593902588,1.7141622304916384,2.4460361003875732,-0.8198206878377847,-0.19205487251105166,-0.31489582841613845,-0.43800637322310665
1777656473.7223642,1777656473.716438,3.9030467,9.777230049999998,-5.070038050000001,1.3250292539596558,1.7844406366348269,2.368640661239624,-0.8176010880031932,-0.18583294956237653,-0.33942423772676356,-0.4263634161094821
1777656473.7675574,1777656473.7564383,3.92266,9.0613446,-4.550285600000001,0.8374829292297363,1.9017179012298586,2.2551288604736324,-0.8204683234039694,-0.17942438924028334,-0.38224226936722433,-0.3853952079948906
1777656473.787544,1777656473.775438,4.32473265,7.83551335,-3.8344001500000013,1.0001479387283325,1.8890662193298342,2.1806221008300777,-0.8261752710919121,-0.18147302264192242,-0.3973641139628412,-0.3558141711960557
1777656473.8005798,1777656473.7964382,4.91313165,6.95291485,-3.961886600000001,1.4121049642562866,1.8274170160293581,2.089274406433105,-0.8322339562081451,-0.18562306470459836,-0.4116864254878979,-0.3216286788406923
1777656473.8203044,1777656473.8164382,5.50153065,6.7862018,-4.4620257500000005,1.8279471397399902,1.7901796102523806,1.9768528938293455,-0.8337210988980376,-0.19026141143049088,-0.42742954605710115,-0.29328093652698733
1777656473.860351,1777656473.8554523,5.95263655,7.158854499999999,-4.873905050000001,2.1480090618133545,1.8528927564620974,1.673640966415405,-0.8299628196273751,-0.19892206162122586,-0.46014677756416045,-0.24465623747179943
1777656473.880163,1777656473.8754523,6.276256,5.491723999999999,-4.628738800000001,2.1872990131378174,1.8953648805618288,1.5498563051223753,-0.828532749702078,-0.20436196934200565,-0.47457312388258976,-0.21575453238829279
1777656473.9011664,1777656473.8964522,6.40374245,4.26589275,-4.1972462,2.2650630474090576,1.9207770824432375,1.465176463127136,-0.8266115610988073,-0.2115093250896299,-0.4874604849445262,-0.18536290911498254
1777656473.9218204,1777656473.9164522,6.4920023,3.9716932499999995,-4.226666150000001,2.3617613315582275,1.9280675649642947,1.39018440246582,-0.8233233367725717,-0.21986450383721326,-0.4996764290132698,-0.15531178115854902
1777656473.9701138,1777656473.9554522,6.71755525,4.22666615,-4.393379200000001,2.543789863586426,1.833896040916443,1.0943375825881956,-0.8158350894619045,-0.24722137936769797,-0.5131904957297412,-0.09965044645600812
1777656473.9838257,1777656473.9754725,6.71755525,3.1479346499999994,-3.2067745500000004,2.6782917976379395,1.6745110750198364,0.8447393178939817,-0.8125064655397682,-0.26321050587785727,-0.5149254681314901,-0.07352030550237007
1777656474.0032153,1777656473.9964724,7.3353742,3.1479346499999994,-3.0792881000000007,2.6876723766326904,1.478241205215454,0.6218146085739134,-0.8090563404573035,-0.27329622825883565,-0.5174578856803957,-0.0545375662502886
1777656474.0421255,1777656474.0354724,8.2571993,3.5696205999999995,-3.6873004000000007,2.233896493911743,1.0307892560958862,0.2830211520195006,-0.8043562426886844,-0.2919656639553182,-0.5166627629061182,-0.028751962456303258
1777656474.0615091,1777656474.0554724,8.924051500000001,2.6477954999999995,-3.6186538500000007,2.043684244155884,0.7125888466835022,0.14209319651126853,-0.805441749741546,-0.30547563032101405,-0.5077247372294432,-0.012799150696378568
1777656474.0804615,1777656474.0754724,8.65927195,1.7259703999999993,-3.5303940000000003,2.0425500869750977,0.3441895842552185,0.03306234627962108,-0.8086116713267183,-0.32139142804892806,-0.4927685405233323,0.005820690799835527
1777656474.1004717,1777656474.0964725,8.3160392,1.2944777999999995,-3.5500073,2.2369680404663086,-0.10027686506509781,-0.0476609207689762,-0.813942347846042,-0.3385729967285814,-0.47122355851980124,0.028540115014421226
1777656474.1204038,1777656474.1164725,7.7668668,1.4415775499999994,-3.73633365,2.5355892181396484,-0.597217857837677,-0.08168124407529824,-0.8211551746583178,-0.35436078964792556,-0.4446231262394862,0.04942555518142747
1777656474.1630204,1777656474.1554892,7.7276402,1.8632634999999995,-3.79517355,2.83940052986145,-1.653342843055725,0.02180476486682912,-0.841066152989872,-0.3725648796658334,-0.3847306844385279,0.07606206140949856
1777656474.191043,1777656474.1754892,7.2863409500000005,2.5006957499999993,-5.1582979,2.664083957672119,-2.0620148181915283,0.1830767393112185,-0.8518513879537292,-0.37295641975224436,-0.3586254155672387,0.08148946628931922
1777656474.2030303,1777656474.196489,6.9234949,2.5203090499999994,-6.20760945,2.2903892993927,-2.310802936553955,0.3983739316463473,-0.8625411089416726,-0.36891671110507707,-0.33608830263673334,0.08347423844421825
1777656474.2399619,1777656474.2354891,6.5508422,2.1868829499999993,-6.89407495,1.402012586593628,-2.4485135078430176,0.9304980039596561,-0.8853031579363806,-0.3538287220791756,-0.2870135159707483,0.09309562626567754
1777656474.2604208,1777656474.2555034,5.91340995,-0.39226600000000084,-6.668522,1.3515386581420898,-2.4439237117767334,1.21368682384491,0.8948701919080354,0.3474540695087642,0.2554373325267395,-0.11504250678726842
1777656474.280842,1777656474.2755034,5.7270836,-1.3925443000000008,-7.6001537500000005,1.6323223114013672,-2.3842687606811523,1.5073413848876955,0.902842326524661,0.33785473079708256,0.2251650019222993,-0.14152963019417178
1777656474.3003151,1777656474.2965033,5.85457005,-1.186604650000001,-8.30623255,1.9535318613052368,-2.2287614345550537,1.8123478889465334,0.9108458084900671,0.3217736222380733,0.2010502370406239,-0.16248215709355454
1777656474.3202906,1777656474.3165035,6.05070305,-0.509945800000001,-8.73772515,2.05352520942688,-1.9636493921279905,2.1195838451385502,0.9191476268552992,0.30050812616560785,0.18492001020404664,-0.175120232928244
1777656474.36278,1777656474.3555033,6.1193496,-0.6178189500000011,-8.8652116,1.3916854858398438,-1.2560321092605589,2.6285479068756104,0.9365452139588437,0.2496530920939662,0.16509958545542935,-0.18247882809013966
1777656474.381938,1777656474.3755035,4.4326058,-3.020448200000001,-8.12971285,0.9913808107376099,-0.9486054778099057,2.7832629680633545,0.9422546403751867,0.22591896323273314,0.15422612906492425,-0.1932126182652776
1777656474.4008417,1777656474.3965034,3.67749375,-4.873905050000001,-8.2768126,0.8600829839706421,-0.6904541850090024,2.8513119220733643,0.9447858489466385,0.20372312861126962,0.14269165483420548,-0.21334403703804694
1777656474.4230719,1777656474.4165034,3.5500073,-5.648630400000001,-8.610238699999998,0.9809390306472778,-0.47121351957321134,2.8484206199645996,0.945573123854862,0.18182385077421243,0.13332995872556594,-0.23463733044686974
1777656474.4606845,1777656474.4555173,3.81478685,-5.030811450000001,-8.502365549999999,1.2178955078125,-0.06874894350767102,2.7604219913482666,0.9474164606018792,0.1352408438830574,0.12246354355847884,-0.262896642857049
1777656474.479949,1777656474.4755173,3.46174745,-4.3639592500000015,-7.3353742,1.1913164854049683,0.08014871925115619,2.66965389251709,0.9474818432702078,0.11380106899956681,0.11691608717319313,-0.2750601787390448
1777656474.5006807,1777656474.4965172,2.87334845,-5.089651350000001,-7.266727649999999,1.155946969985962,0.1369571089744571,2.5449154376983643,0.9465167165038344,0.09521585504019592,0.10906464732646143,-0.28834865879923727
1777656474.5201588,1777656474.5165172,2.6674088,-5.815343450000001,-7.100014599999999,1.1399271488189697,0.08610816299915343,2.3966503143310547,0.945166937256537,0.0797431036562648,0.0990447408937669,-0.3008166176221821
1777656474.5606349,1777656474.5555317,2.59876225,-6.089929650000001,-6.845041699999999,1.0038279294967651,-0.23776735365390753,2.0627689361572266,0.9448819147878853,0.05328842587292292,0.07521576155860327,-0.31416731209329285
1777656474.5814815,1777656474.5755317,1.89268345,-5.874183350000001,-6.933301549999999,0.7221407890319824,-0.4005642831325529,1.9142885208129883,0.9480201375425867,0.03944560497920956,0.06532289893130114,-0.3089252044375303
1777656474.6009097,1777656474.5965319,1.5494507,-5.893796650000001,-7.227501049999999,0.21603307127952576,-0.5031040310859678,1.7781462669372559,0.954029347055035,0.025566456485570207,0.056946537873878184,-0.2931406711541305
1777656474.6410706,1777656474.635532,1.2748645,-5.727083600000001,-7.404020749999999,-1.3142857551574707,-0.5777937173843382,1.4924557209014893,0.9709789460326865,0.003779883116792779,0.04174540814675426,-0.23546320252544245
1777656474.660514,1777656474.655532,0.32361945000000003,-5.540757250000001,-7.786480099999999,-2.073650598526001,-0.6037097573280333,1.304056167602539,0.9783986097646975,-0.002449371516960066,0.03374418436830201,-0.20393992010147827
1777656474.6799529,1777656474.6755319,0.0196133,-5.629017100000001,-8.217972699999999,-2.6636388301849365,-0.6589006185531615,1.0894798040390015,0.98425461722017,-0.006920317080512441,0.023732397377311504,-0.17501923039199807
1777656474.7006102,1777656474.6965318,-0.0980665,-5.697663650000001,-8.81617835,-2.9675304889678955,-0.747804284095764,0.8832579255104066,0.9883613950008798,-0.009934913753350982,0.012694573250203983,-0.1512676375521994
1777656474.7202008,1777656474.7165318,-0.0784532,-5.540757250000001,-9.34573745,-3.0067405700683594,-0.8438761830329894,0.6979708075523378,0.9916118118780547,-0.01222375971909806,0.0022749741016934435,-0.12865231725502627
1777656474.7629497,1777656474.7555318,0.0980665,-4.756225250000001,-9.659550249999999,-2.906554698944092,-0.8164709210395813,0.4290798008441926,0.9972695093041017,-0.015762522807393375,-0.008077416371113979,-0.07169256608512704
1777656474.780693,1777656474.7755318,-0.38245935,-2.971414950000001,-10.355822400000001,-2.9695191383361816,-0.7061053514480591,0.3296334743499757,0.9989572294912172,-0.016402523549009784,-0.013773744240219791,-0.04031990622584224
1777656474.8012626,1777656474.796532,-0.8041453000000001,-3.3244543500000012,-9.9635564,-2.9611008167266846,-0.6584861278533936,0.2462744116783143,0.9994191844286107,-0.016168301040350663,-0.02363987006871816,-0.018467170347758338
1777656474.820612,1777656474.816532,-1.32389775,-3.618653850000001,-9.50264385,-2.748120069503784,-0.7044596076011658,0.17909541726112374,0.9992603418019012,-0.015829082548812597,-0.03488524528268422,-0.003350986299152763
1777656474.860793,1777656474.855532,-1.18660465,-2.481082450000001,-9.4339973,-2.39578914642334,-0.8237677812576294,0.06862484663724909,-0.9973213923688916,0.011654039872695306,0.05376325480089343,-0.04820514610739623
1777656474.8852649,1777656474.875532,-0.9414384,0.5589790499999987,-10.4735022,-2.509334087371826,-0.846508800983429,-0.005616574548184768,-0.9948744770782167,0.007119657935280573,0.06251057161991855,-0.07916131482599523
1777656474.9003127,1777656474.8965318,-1.26505785,0.4805258499999987,-10.895188150000001,-2.6645185947418213,-0.8381018042564392,-0.11575748026370992,-0.9917011926056116,0.0003522550428452466,0.07035767484567651,-0.10760305800163092
1777656474.9220085,1777656474.9165318,-1.4121576,0.4216859499999987,-10.718668450000001,-2.8321034908294678,-0.7960976362228394,-0.28575843572616566,-0.9871308265543742,-0.009888239823272254,0.07740960829489588,-0.13958046612225644
1777656474.960335,1777656474.9555318,-1.4709975,1.0100849499999986,-10.091042850000001,-3.280738592147827,-0.620245397090912,-0.6258426904678344,-0.9734360846265767,-0.028639376819445235,0.0880640039108329,-0.20939605167592545
1777656474.9803224,1777656474.9755318,-2.42224255,1.6082905999999988,-9.7674234,-3.4317991733551025,-0.5904831886291505,-0.667410373687744,-0.9655028557110419,-0.032806768561629514,0.09683262423406344,-0.23948151167535137
1777656475.0037432,1777656474.9965317,-2.97141495,1.2356378999999988,-9.30651085,-3.3896093368530273,-0.6619808673858644,-0.6256443262100219,-0.9586937714496575,-0.033702907861325467,0.10793516664972105,-0.2609987861765258
1777656475.0244846,1777656475.016532,-2.65760215,1.8436501999999988,-8.2571993,-3.1124978065490723,-0.7968278527259828,-0.5751234889030455,-0.9523979296614558,-0.03622551197613378,0.12018396463420009,-0.2778159651701915
1777656475.061513,1777656475.0555458,-2.24572285,3.736333649999999,-7.69822025,-2.6156468391418457,-0.9661958813667298,-0.5709348917007445,-0.9346247241908321,-0.04763514100192829,0.1384857172295572,-0.3240821260056667
1777656475.080352,1777656475.075546,-2.42224255,5.825150099999999,-8.22777935,-2.6374902725219727,-0.945383369922638,-0.6546855568885802,-0.9221788408842388,-0.060055814691896366,0.14702906657855044,-0.35264988037447914
1777656475.102601,1777656475.096546,-2.38301595,4.9621648999999985,-7.158854500000001,-2.721919536590576,-0.8611524105072023,-0.823428988456726,-0.9114323014928803,-0.07420366214329173,0.15408130093449957,-0.374224436698417
1777656475.1226757,1777656475.116546,-2.36340265,4.707191999999999,-6.7862018000000015,-2.6570141315460205,-0.726226031780243,-1.019469141960144,-0.9036177819806779,-0.08734231987672748,0.16130280403904662,-0.3870757402059866
1777656475.1605191,1777656475.15556,-3.06948145,5.226944449999999,-7.256921000000001,-1.903566598892212,-0.5058367848396303,-1.3833110332489014,-0.8955274838086051,-0.1144712739950154,0.18001997643540624,-0.3905376566447623
1777656475.179986,1777656475.17556,-3.61865385,6.256642699999999,-7.001948100000001,-1.3381767272949219,-0.4150965213775637,-1.6004420518875122,-0.893463131529576,-0.13174302221008938,0.19014574792833638,-0.3849831207223102
1777656475.2003126,1777656475.19656,-3.7657536,6.119349599999999,-6.658715350000001,-0.7557884454727173,-0.32920396327972434,-1.8285984992980957,-0.8924793251047408,-0.15039021665959357,0.2006333834642361,-0.37497957602162785
1777656475.2224624,1777656475.21656,-4.0599531,5.982056499999999,-6.7862018000000015,-0.23290105164051056,-0.25116020441055326,-2.0675292015075684,-0.8903255461762001,-0.1714042803592642,0.21185162346683722,-0.36477374375774285
1777656475.2615328,1777656475.25556,-4.5895122,6.0408963999999985,-6.678328650000001,0.3278822898864746,-0.20132003724575073,-2.512545108795166,-0.8812223929932119,-0.2153004721993679,0.23680353094288178,-0.34787481727056596
1777656475.2820902,1777656475.27556,-5.81534345,5.236751099999999,-5.874183350000001,0.4452770948410034,-0.23434011638164554,-2.685028314590454,-0.8756523691481612,-0.23754531857983077,0.25175460943729294,-0.3367859359490758
1777656475.3019147,1777656475.29656,-6.2566427000000004,4.6875786999999995,-5.746696900000001,0.5302642583847046,-0.31695625185966525,-2.808419942855835,-0.8697943256715339,-0.2563521983323661,0.2684605262707992,-0.3250697267882232
1777656475.3220835,1777656475.31656,-6.7273619,4.0011132,-5.9232166,0.637033224105835,-0.4622255861759189,-2.8775177001953125,-0.863736812526746,-0.27236476411006183,0.28863267616989313,-0.3105919062120149
1777656475.3603134,1777656475.3555737,-7.09020795,3.3244543499999994,-6.28606265,1.1652898788452148,-0.952883064746857,-2.8715622425079346,-0.85180060625323,-0.291485492021052,0.34326244438133047,-0.2676617817418642
1777656475.380028,1777656475.3755736,-7.79628675,1.941716699999999,-6.4331624000000005,1.647971510887146,-1.2884649038314824,-2.7936041355133057,-0.8455631244705109,-0.29326375543454475,0.3768821845995885,-0.238703144544718
1777656475.400358,1777656475.3965735,-7.9139665500000005,1.0983447999999991,-6.26644935,2.1618382930755615,-1.590160131454468,-2.6578633785247803,-0.8392111936572959,-0.29176320192222605,0.40751605811921604,-0.2110200673380676
1777656475.4201012,1777656475.4165735,-7.34518085,0.8727918499999991,-6.44296905,2.4946465492248535,-1.742201089859009,-2.4675681591033936,-0.8334089418546476,-0.2927495924041743,0.4283303421966468,-0.19042145293429985
1777656475.4663944,1777656475.4555736,-6.8842683000000005,1.3729309999999992,-6.4920023,2.201072931289673,-1.4545050859451296,-2.055781126022339,0.8231421229193885,0.30563561582993637,-0.44910893849832345,0.16530298597704457
1777656475.4861393,1777656475.4755735,-7.7080269,0.5687856999999993,-5.99186315,1.820150375366211,-1.1270508766174319,-1.8598315715789793,0.8207500281533497,0.31090041875535607,-0.45395501171952635,0.1537373352141387
1777656475.5027761,1777656475.4965737,-7.9139665500000005,-0.7060788000000007,-6.14876955,1.4119995832443237,-0.7191699147224428,-1.6444250345230103,0.8205690410767638,0.31692293038666736,-0.4531360943974882,0.14454751805437027
1777656475.5215685,1777656475.5165737,-7.93357985,-1.108151450000001,-6.3939358,1.0102643966674805,-0.2750052511692049,-1.4247716665267944,0.823010441223307,0.3231539608963858,-0.44634620472551334,0.13784192657361022
1777656475.560851,1777656475.5555887,-7.6688003,-1.2356379000000008,-6.40374245,0.35232946276664734,0.8026553392410277,-0.9978379011154176,0.836458667851172,0.33625928855770976,-0.41601064115915426,0.1191710295233491
1777656475.5797126,1777656475.5755887,-6.44296905,-1.657323850000001,-6.9038816,0.1318320333957672,1.394171118736267,-0.845234274864197,0.8459267323412033,0.3447104484401855,-0.3919862863299789,0.10922189146838818
1777656475.6003976,1777656475.5965886,-5.95263655,-1.569064000000001,-7.2176944,-0.06416336447000504,1.9952739477157593,-0.7467222213745119,0.8559402034849111,0.3550690193927131,-0.36265436543004625,0.09886440593174392
1777656475.6201694,1777656475.6165886,-5.7270836,-1.5494507000000008,-7.26672765,-0.24799320101737976,2.597811698913574,-0.6973794698715213,0.8668372455718747,0.3666037386818353,-0.32630988660462457,0.08784501339258256
1777656475.6610935,1777656475.6555886,-5.6486304,-1.4513842000000008,-7.56092715,-0.7527017593383789,3.690702438354492,-0.6602188348770146,0.8864167891169261,0.39100294546417247,-0.23509945184518974,0.07816789847547112
1777656475.6814754,1777656475.6755886,-4.75622525,-1.3435110500000012,-8.9044382,-1.1922932863235474,4.191689968109131,-0.5997078418731695,-0.8944034828795158,-0.4018006342916248,0.17852425614536768,-0.082022863054046
1777656475.7061129,1777656475.6965888,-3.93246665,-1.3631243500000012,-9.42419065,-1.7421531677246094,4.652217388153076,-0.47293815016746577,-0.9028922979537801,-0.4049040878604918,0.11419614221654426,-0.08830299560300481
1777656475.7414167,1777656475.7355888,-3.2165812000000003,-1.549450700000001,-9.83606995,-2.50870943069458,5.320453643798828,-0.07634697854518956,-0.9121028487607754,-0.39938214518255744,-0.010171547099267614,-0.09197192518080938
1777656475.7660728,1777656475.7565887,-2.61837555,-1.0787315000000013,-10.24794925,-2.654813766479492,5.501998424530029,0.16286690533161097,-0.9130271404205768,-0.3914523524725544,-0.06970204075451189,-0.09103912408290922
1777656475.7810013,1777656475.7755888,-1.7455837,-0.2843928500000013,-10.56176205,-2.630474090576172,5.520875930786133,0.400909781455993,-0.9122382294749678,-0.38092728022223477,-0.12261693500355603,-0.08764078455377254
1777656475.8012846,1777656475.7965887,-0.6668522,0.4020726499999987,-10.87557485,-2.4320406913757324,5.33334493637085,0.6152825951576226,-0.9082197241225108,-0.37465052064903787,-0.1671023585203552,-0.08276908764248618
1777656475.8208065,1777656475.8165886,0.3530394,1.0100849499999986,-10.6500219,-2.0821995735168457,4.966097831726074,0.7705375552177424,-0.9045422730358719,-0.36914810794874886,-0.2002751872739366,-0.0736396635743731
1777656475.8650777,1777656475.8555887,1.1571847,0.9806649999999988,-9.95374975,-0.8638437986373901,3.9257888793945312,0.9237478375434871,-0.8990506581364829,-0.3604521618040714,-0.246280278028672,-0.03358835823984721
1777656475.884571,1777656475.8755887,3.04986815,0.9218250999999988,-9.3359308,-0.22564294934272766,3.441098928451538,0.9452495574951167,-0.8959234698443637,-0.35592708338537404,-0.2654404505699145,-0.013357196414565758
1777656475.9036846,1777656475.8965886,4.03053315,1.1669913499999989,-9.24767095,0.24270926415920258,3.051776170730591,0.9506258964538571,-0.8919259465433811,-0.35061932494367665,-0.285507285218222,0.004448027209338513
1777656475.9221637,1777656475.9165888,4.7660319,1.1571846999999988,-9.34573745,0.5242292881011963,2.7771825790405273,0.9638331532478329,-0.8871495106872116,-0.3438490225003755,-0.30693589889734885,0.022889940608350118
1777656475.9640274,1777656475.9555886,4.6875787,1.039504899999999,-9.1986377,0.6686687469482422,2.474785327911377,1.0272345542907713,-0.8791084467458008,-0.32821884760373365,-0.341254678423732,0.05464404260098277
1777656475.9805987,1777656475.9755886,4.06975975,1.4219642499999992,-7.5511205,0.583919882774353,2.3535726070404053,1.0568864345550535,-0.8744388516966803,-0.31962345293982675,-0.35878055809948795,0.06688837046926463
1777656476.0028725,1777656475.9965887,5.12887795,1.4906107999999991,-7.4922806,0.3987283706665039,2.2815730571746826,1.0600371360778806,-0.8691496403079954,-0.3088699775610622,-0.37873403311326675,0.07575468220295029
1777656476.0401356,1777656476.0355887,6.16838285,1.3729309999999992,-7.5903471,-0.13358056545257568,2.238569736480713,1.073141574859619,-0.8588960084186175,-0.2828361967781994,-0.41731872039694273,0.09025751005245114
1777656476.0604148,1777656476.0556026,6.40374245,-0.4020726500000009,-7.1588545,-0.373177170753479,2.2194151878356934,1.1361628770828245,-0.8551438332833952,-0.2651765276471223,-0.4352374280083984,0.09475660843988895
1777656476.080955,1777656476.0756025,6.0310897500000005,-0.5197524500000008,-6.2174161,-0.6186459064483643,2.1607825756073,1.248377442359924,-0.8523522218693895,-0.24344355220507216,-0.4530545427002072,0.09472332396404554
1777656476.1011019,1777656476.0966024,6.30567595,0.08825984999999929,-5.87418335,-1.072676181793213,2.1117160320281982,1.3828927278518675,-0.8494759174343751,-0.21235593304512088,-0.4762934983150286,0.08025040101080272
1777656476.1210437,1777656476.1166024,7.32556755,1.5690639999999991,-6.26644935,-1.7783015966415405,2.075936794281006,1.504430294036865,-0.8458739277189751,-0.17781603520436515,-0.4993284895643533,0.05958032845542011
1777656476.1620343,1777656476.1556025,7.65899365,1.0983447999999991,-6.4527757,-2.97066068649292,1.9232704639434817,1.597979664802551,-0.8370217591124615,-0.11905967792246105,-0.5334947255697695,0.02455087889499469
1777656476.1826482,1777656476.1756024,7.73744685,-0.7845320000000006,-4.32473265,-3.0982348918914795,1.701472043991089,1.52804958820343,-0.8353441205696588,-0.10062569299537796,-0.540209035586567,0.015775551005723535
1777656476.2005022,1777656476.1966026,7.6099604,-1.1964113000000005,-3.50097405,-2.895416259765625,1.3573169708251955,1.404718995094299,-0.8356077212602957,-0.08559841486008887,-0.5425589933155754,0.007898500870743235
1777656476.2209456,1777656476.2166026,7.7276402,-0.5883990000000004,-3.34406765,-2.5798017978668213,0.9487653970718385,1.2371898889541624,-0.8365642764243704,-0.07075331492116446,-0.543262316035565,-0.004498423491652688
1777656476.2604647,1777656476.2556171,8.4141057,0.3432327499999996,-3.57942725,-2.0975112915039062,0.20298098027706157,0.7989611625671387,-0.840244204221847,-0.0466957501892832,-0.5391622738634644,-0.0333650510000189
1777656476.2800944,1777656476.2756171,9.07115125,-0.4609125500000005,-3.9422733,-1.9307148456573486,-0.08896568417549126,0.6051548719406128,-0.8422885680157608,-0.035127614107621795,-0.5358320902786576,-0.04690405040792852
1777656476.3029277,1777656476.296617,8.73772515,-0.4314926000000005,-4.06975975,-1.8501121997833252,-0.27391391992568964,0.4838793873786927,-0.8426679547724569,-0.02096042202963119,-0.5345028189980474,-0.06146637447486877
1777656476.3211007,1777656476.316617,8.2768126,0.1078731499999995,-4.0991797,-1.8495761156082153,-0.3650555610656738,0.40021312236785894,-0.8429319609608832,-0.008853855741343364,-0.5323435541611279,-0.0774445528894708
1777656476.3614528,1777656476.355617,8.50236555,0.5295590999999994,-4.38357255,-1.429274082183838,-0.4906240403652191,0.13697424530982977,-0.8500065976313118,-0.00888109761565017,-0.5196229265700855,-0.0860344365421293
1777656476.382977,1777656476.375617,8.9828914,-0.22555295000000053,-4.3737659,-1.0265997648239136,-0.6506306529045105,0.012549206614494404,-0.8575604619876903,-0.008438337582727853,-0.5069030226796352,-0.08699525327595797
1777656476.4010384,1777656476.3966172,8.05125965,-0.09806650000000057,-4.67777205,-0.6468086242675781,-0.9508823156356812,-0.05555766820907581,-0.8689227351923234,-0.0073399410542255,-0.4872621132572251,-0.08657389049427688
1777656476.4400613,1777656476.435617,7.2863409500000005,-0.4412992500000006,-4.5306723,-0.10656146705150604,-1.9928468465805054,-0.06253017485141729,-0.9002715227071281,-8.814229439882579e-05,-0.426454384257543,-0.08745190553123833
1777656476.4603791,1777656476.4556315,6.8842683000000005,1.0395048999999996,-3.726527,-0.03637241944670677,-2.6384687423706055,-0.004121763631701146,-0.9166788956117399,0.0056687087038702864,-0.3896595666203455,-0.08850474689481866
1777656476.480366,1777656476.4756315,6.48219565,0.8139519499999993,-5.38385085,-0.017269587144255638,-3.157353401184082,0.011621369980276018,-0.9294598826116236,0.005749095088119293,-0.3575280633200426,-0.0908017536167359
1777656476.500538,1777656476.4966314,6.8058151,0.12748644999999909,-7.34518085,-0.048767298460006714,-3.3355631828308105,-0.08803882449865301,-0.9371170217967734,-0.00035663054529514626,-0.33533214640944864,-0.09676730779468996
1777656476.5218759,1777656476.5166314,6.8450417,0.3530393999999989,-8.87501825,-0.12559109926223755,-3.1431634426116943,-0.22809089720249137,-0.9407804930627099,-0.005415829648480344,-0.3231756401098283,-0.10227530641120387
1777656476.5633008,1777656476.5556314,6.6587153500000005,1.0002782999999988,-9.7870367,-0.14430834352970123,-1.9023540019989014,-0.3079083263874052,-0.9418639488210285,-0.013059265430819903,-0.3201436668867004,-0.10114242458041042
1777656476.5811183,1777656476.5756314,6.44296905,1.0100849499999986,-9.6889702,-0.057356104254722595,-1.1717318296432495,-0.24867856502532945,-0.9411507982609988,-0.016836294396926944,-0.3227188487067636,-0.09901645728385557
1777656476.6013687,1777656476.5966315,6.30567595,0.8629851999999989,-8.9632781,0.03539881110191345,-0.5477418303489685,-0.17470893263816828,-0.9408331716371595,-0.018514182979447714,-0.32433277916096037,-0.09642829738979276
1777656476.620244,1777656476.6166315,6.16838285,0.8041452999999991,-8.2571993,0.11340054869651794,-0.15261651575565338,-0.11284432560205458,-0.9413348460014264,-0.02014582632976262,-0.32355988558446397,-0.09376488588768407
1777656476.6601655,1777656476.6556315,6.0605097,0.6864654999999991,-7.9237732,0.23017467558383942,0.10121238976716995,-0.0478244684636593,-0.9431452222376587,-0.024046650216005584,-0.3194897766383691,-0.08845977055832462
1777656476.6804202,1777656476.6756315,6.05070305,0.6472388999999991,-8.01203305,0.23479950428009033,0.08760612457990646,-0.0541743114590645,-0.9434980302472961,-0.0264223309212969,-0.318445190240296,-0.08778375795658122
1777656476.7006288,1777656476.6966314,6.0310897500000005,0.657045549999999,-8.1002929,0.19310200214385986,0.055656939744949334,-0.08078811317682266,-0.9435409710998683,-0.028281549904335436,-0.3178893262965887,-0.088752273309626
1777656476.7216897,1777656476.7166314,5.9036033,0.853178549999999,-8.09048625,0.11157502233982086,0.02836138382554053,-0.10710489004850388,-0.9433758435020869,-0.02987820366061881,-0.3177583719707298,-0.09043742524669746
1777656476.763367,1777656476.7566445,5.7663102,0.823758599999999,-7.9629998,0.0057402257807552814,-0.010374814271926894,-0.10981112718582153,-0.9437113823686455,-0.03256336421925141,-0.3164306778751972,-0.0906646579325574
1777656476.780206,1777656476.7756445,5.8055368000000005,0.5197524499999991,-7.649187,-0.009227532893419266,-0.03431755304336549,-0.10421962291002274,-0.9440275554543937,-0.03411747389594281,-0.3151203601350486,-0.09136263539390069
1777656476.802493,1777656476.7966444,5.8447634,0.5785923499999991,-7.6099604,-0.04572851583361626,-0.06647953391075136,-0.10359428822994231,-0.9442768901457905,-0.035094702840948656,-0.31338786125194673,-0.09432690490539232
1777656476.8213751,1777656476.8166444,5.79573015,0.745305399999999,-7.7080269,-0.10005902498960495,-0.09800515323877336,-0.10607884824275969,-0.9445239969073342,-0.03604945467443758,-0.3116581068447111,-0.0971806591963672
1777656476.8604095,1777656476.8556588,5.7663102,0.706078799999999,-7.8257067000000005,-0.20433305203914642,-0.13765463232994082,-0.1217200383543968,-0.9446557157449215,-0.03829203778095767,-0.30904413445744583,-0.10320378631852621
1777656476.880644,1777656476.8756588,5.69766365,0.862985199999999,-8.1002929,-0.22590084373950958,-0.12660668790340426,-0.12888351082801816,-0.9445418409624575,-0.039749880153716034,-0.3086183671824624,-0.104954090614172
1777656476.9002273,1777656476.896659,5.52114395,0.862985199999999,-8.2768126,-0.21179015934467316,-0.09623798727989198,-0.13002881407737732,-0.944342233004538,-0.041380010663791635,-0.30869415250924603,-0.1058931626124441
1777656476.940643,1777656476.935659,5.3740442,0.990471649999999,-8.3160392,-0.12234017252922058,-0.010157393291592612,-0.11549227684736252,-0.9437975653354818,-0.04493109411531141,-0.3096556396685347,-0.10649289774388078
1777656476.9621208,1777656476.955659,5.4034641500000005,1.0983447999999991,-8.01203305,-0.07299645990133286,0.02917539700865744,-0.11339689791202545,-0.9434748239391585,-0.04709215378198665,-0.3102270607847631,-0.10675559190035104
1777656476.9835775,1777656476.975659,5.4721107,1.166991349999999,-7.81590005,-0.03678451478481293,0.06051833927631377,-0.1205962896347046,-0.9430911789708658,-0.04939667161620651,-0.31074930963364833,-0.10758189226256291
1777656477.0022688,1777656476.9966588,5.5113373,1.314091099999999,-7.67860695,-0.01983419992029667,0.07796353101730345,-0.13160529732704163,-0.9427721596832019,-0.05161010967058197,-0.3110709404764126,-0.1084062797866525
1777656477.0407364,1777656477.0356588,5.57998385,1.402350949999999,-7.6295737,0.011219299398362637,0.07604819536209105,-0.12895607948303223,-0.9426668543679673,-0.05538139554524683,-0.31104520974680033,-0.10753129868569278
1777656477.059967,1777656477.0556588,5.65843705,1.206217949999999,-7.67860695,0.053435567766427994,0.05604057759046553,-0.10957597941160202,-0.9429872310732464,-0.057090444750294546,-0.3104191695176301,-0.10562055835399636
1777656477.0802803,1777656477.0756588,5.687857,1.068924849999999,-7.75706015,0.09883742779493332,0.02744777314364909,-0.08913015574216843,-0.9432678527524789,-0.058858340893368645,-0.30960335464812905,-0.10453332703799557
1777656477.1007924,1777656477.0966587,5.687857,1.029698249999999,-7.8649333,0.11532720923423767,-0.0006289135199040273,-0.08045528084039688,-0.9433480719773448,-0.06072272141075389,-0.3088893892381319,-0.10485471576038952
1777656477.120269,1777656477.116659,5.65843705,1.000278299999999,-7.9629998,0.0999450832605362,-0.022990526631474505,-0.08348333835601807,-0.943390383618064,-0.06257395140896314,-0.308162233082224,-0.10552309132984827
1777656477.1616783,1777656477.1556723,5.61921045,0.941438399999999,-8.03164635,0.055482421070337296,-0.05216908454895021,-0.09698142111301422,-0.943738179295394,-0.06613895413569153,-0.30636182255888356,-0.10548137923088897
1777656477.1816165,1777656477.1756723,5.4721107,0.892405149999999,-8.16893945,0.05536274239420891,-0.06386601179838182,-0.09910380095243453,-0.9440323570088511,-0.0680171483994103,-0.30524220673998687,-0.10489886399970626
1777656477.202201,1777656477.1966724,5.4034641500000005,0.941438399999999,-8.22777935,0.05491509288549423,-0.07319704443216325,-0.10469604283571242,-0.944156477697802,-0.0700403045449519,-0.3042808383813009,-0.10524292258628554
1777656477.2203057,1777656477.2166724,5.4034641500000005,1.049311549999999,-8.26700595,0.05141862854361534,-0.07361005246639253,-0.11593584716320036,-0.9442119272644653,-0.07247289101909991,-0.3036093271462841,-0.105037578745125
1777656477.2617133,1777656477.2556725,5.4034641500000005,1.010084949999999,-8.32584585,0.06599140167236328,-0.0478491708636284,-0.13579267263412476,-0.9441313083463418,-0.0768864926315853,-0.30286616313662207,-0.10476939953029722
1777656477.2805717,1777656477.2756724,5.28578435,1.3729309999999988,-8.24739265,0.05108971148729324,-0.03675961121916773,-0.143977090716362,-0.9440694754203982,-0.07895685707319537,-0.3021976866908225,-0.10571281123540664
1777656477.3005629,1777656477.2966723,5.26617105,1.412157599999999,-8.2179727,0.029429703950881958,-0.032301805913448355,-0.15296928584575653,-0.9439779969677098,-0.08127223896485346,-0.30159068430371005,-0.10650550950861759
1777656477.3399029,1777656477.3356724,5.2759777,1.4709974999999988,-8.20816605,0.005971184000372887,-0.013339275494217892,-0.15386895835399628,-0.9436027751946934,-0.08536489087250647,-0.3014987080976977,-0.10688857313397676
1777656477.3606856,1777656477.3556871,5.3740442,1.6867437999999988,-8.041453,0.010669589042663574,0.0037300842814147303,-0.13746893405914307,-0.9434408200102583,-0.08687523809771434,-0.30170861066994636,-0.10650833953943487
1777656477.3809943,1777656477.3756871,5.4132708,1.716163749999999,-7.89435325,0.019571326673030853,0.017559381201863275,-0.11275766044855118,-0.9433532761034646,-0.08803442549044803,-0.3016904866014118,-0.10638320679332217
1777656477.401485,1777656477.3966873,5.42307745,1.7455836999999992,-7.7668668,0.018378673121333122,0.020530588924884786,-0.08423072099685669,-0.9433441181477404,-0.08896133598995974,-0.3012858575344652,-0.10683907293057925
1777656477.423062,1777656477.4166873,5.44269075,1.7259703999999991,-7.71783355,0.012464753352105618,0.010042745620012276,-0.05588408187031746,-0.943486698535584,-0.08988070204242547,-0.30053653020068827,-0.10692101337770588
1777656477.4621592,1777656477.455701,5.4721107,1.549450699999999,-7.77667345,0.009872781112790108,-0.027926530689001083,-0.009182242676615712,-0.9438519196716499,-0.09119696891047556,-0.29907317872158107,-0.10668598953495367
1777656477.4813569,1777656477.475701,5.54075725,1.431770899999999,-8.05125965,0.013131221756339073,-0.03660743311047554,0.008486760780215269,-0.9439063397760883,-0.09174217423850344,-0.298811113863361,-0.10647118590603485
1777656477.5024326,1777656477.496701,5.5113373,1.4023509499999989,-8.14932615,0.011529316194355488,-0.034779030829668045,0.022193076089024547,-0.9438514151678774,-0.09219492965229518,-0.29876878098365656,-0.10668559669207044
1777656477.5224621,1777656477.516701,5.46230405,1.363124349999999,-8.16893945,0.004607731010764837,-0.024978663772344586,0.029650246724486354,-0.9437663265446745,-0.09283385814844029,-0.29881505295079097,-0.10675467105312922
1777656477.5622518,1777656477.555701,5.4328841,1.206217949999999,-8.1002929,0.0009029465727508068,-0.00969019345939159,0.025457290932536125,-0.9438210449460243,-0.09439181633223996,-0.2981269277902707,-0.10682862468847001
1777656477.5830276,1777656477.575701,5.38385085,1.117958099999999,-7.8845466,-0.0036585628986358643,-0.01534447632730007,0.015442468225955965,-0.9439198920147526,-0.09516757440183447,-0.29738530486565595,-0.10733289659414881
1777656477.6015658,1777656477.5967011,5.3740442,1.147378049999999,-7.84532,-0.014524567872285843,-0.03097737394273281,0.0016816279385238923,-0.9440591853336053,-0.0960428310727268,-0.29634266059801184,-0.10820839475972599
1777656477.6497986,1777656477.635701,5.36423755,1.1767979999999991,-7.89435325,-0.042496729642152786,-0.07358012348413467,-0.026196809485554685,-0.9444400131907914,-0.09770297620015027,-0.29403302689325667,-0.10968942073782602
1777656477.660469,1777656477.6557012,5.38385085,1.274864499999999,-8.09048625,-0.04117870330810547,-0.08902814239263535,-0.03171468153595923,-0.9446683139968088,-0.0985114625716743,-0.2929975801128939,-0.10977106321979636
1777656477.683057,1777656477.6757224,5.36423755,1.343511049999999,-8.1983594,-0.03302023187279701,-0.0968732088804245,-0.033805895596742616,-0.9448182961477058,-0.09935190502930834,-0.29211813846452545,-0.11006625010244318
1777656477.7019558,1777656477.6967223,5.36423755,1.412157599999999,-8.2571993,-0.027063827961683273,-0.09324546158313751,-0.033806942403316484,-0.9448210322391328,-0.10032107349305451,-0.29163942948643407,-0.11043252428794734
1777656477.7281506,1777656477.7167222,5.38385085,1.421964249999999,-8.28661925,-0.021357450634241104,-0.07809784263372421,-0.03188810870051383,-0.9447538639032796,-0.10121870771421675,-0.2915071155213733,-0.11053737580065924
1777656477.7620213,1777656477.756738,5.4034641500000005,1.421964249999999,-8.22777935,-0.0005919965915381908,-0.041260309517383575,-0.018171506002545353,-0.9448886350223578,-0.10271923746937404,-0.2907005993148365,-0.11012441698956373
1777656477.7797732,1777656477.775738,5.3544309,1.421964249999999,-8.0806796,0.006681257858872414,-0.03722956404089928,-0.01001067459583282,-0.9450076425615059,-0.10331189704035547,-0.29002824555356865,-0.11032145852637577
1777656477.8005598,1777656477.796738,5.34462425,1.441577549999999,-8.09048625,0.004024995490908623,-0.038407448679208755,-0.00476750079542398,-0.9450526351272581,-0.10396623818373922,-0.28949361686411756,-0.11072481181686057
1777656477.8210447,1777656477.816738,5.3544309,1.421964249999999,-8.14932615,-0.0037380484864115715,-0.039413485676050186,-0.0006913752295076798,-0.945081202969113,-0.1045560598919225,-0.2890853693309966,-0.11099188877162196
1777656477.861534,1777656477.855738,5.3152043,1.3729309999999988,-8.2179727,-0.0069037191569805145,-0.029558058828115463,0.009816414676606659,-0.9450492912447678,-0.10571431267599761,-0.288882592910573,-0.11069403202733125
1777656477.8809097,1777656477.875738,5.28578435,1.284671149999999,-8.2571993,-0.001956443302333355,-0.016934713348746296,0.01450000796467066,-0.94499739825107,-0.10637174839179568,-0.28892645236316356,-0.11039236190795866
1777656477.901976,1777656477.8967378,5.28578435,1.216024599999999,-8.1787461,0.006143810227513313,-0.006879521068185566,0.015207137912511826,-0.9449914445669816,-0.10723088086077869,-0.2887240059248063,-0.11014152844301436
1777656477.9218543,1777656477.916738,5.26617105,1.166991349999999,-8.09048625,0.010770497843623161,-0.0047399485483765585,0.010628621093928814,-0.9450141231340559,-0.10812091676114176,-0.28825071391391793,-0.11031636489668416
1777656477.962011,1777656477.9557378,5.2563644,1.186604649999999,-8.05125965,0.00810636579990387,-0.0203663632273674,-0.012251678854227064,-0.9451117579156989,-0.11024809954335073,-0.2870486794972419,-0.11050871999741262
1777656477.9803865,1777656477.9757378,5.2759777,1.235637899999999,-8.11009955,0.009992960840463638,-0.028537515550851825,-0.023743722587823864,-0.94515245120786,-0.11125811219444197,-0.28651595144435177,-0.11053092786474186
1777656478.000967,1777656477.996738,5.26617105,1.343511049999999,-8.1199062,0.005989158991724253,-0.0355399139225483,-0.03232136368751525,-0.9451504616578191,-0.11229009795965826,-0.28592551383589815,-0.11103215419822837
1777656478.0201387,1777656478.016738,5.26617105,1.412157599999999,-8.1395195,-0.0022276081144809723,-0.04081079363822938,-0.03789412602782249,-0.9451665579459525,-0.11328781180913687,-0.28536266166817614,-0.11132924486293734
1777656478.0608869,1777656478.055738,5.26617105,1.3827376499999988,-8.16893945,-0.006104080937802792,-0.048427842557430274,-0.04080064594745635,-0.9453080216915227,-0.11517215225216014,-0.2840631566443504,-0.11151790218844805
1777656478.0810869,1777656478.075738,5.2563644,1.3925442999999988,-8.2179727,-0.006066052243113518,-0.050891380757093437,-0.03909135982394218,-0.9453589758326922,-0.11600238556658364,-0.28351129072030834,-0.11162975136373757
1777656478.101016,1777656478.0967379,5.2759777,1.412157599999999,-8.24739265,-0.00561098475009203,-0.04955197125673295,-0.035449966788291924,-0.9453552980523126,-0.11697811306121446,-0.2830815694332848,-0.11173319361876963
1777656478.121175,1777656478.1167378,5.2759777,1.421964249999999,-8.2571993,-0.0028155045583844185,-0.04420032724738122,-0.030833583325147622,-0.9453639093515923,-0.11788099798887168,-0.2827344537472971,-0.11159022301635338
1777656478.1601982,1777656478.1557379,5.2367511,1.421964249999999,-8.2571993,0.009783465415239334,-0.03877466171979904,-0.01681176200509071,-0.9455460081606935,-0.11939190327640135,-0.28160271684592797,-0.11130242471935915
1777656478.1805162,1777656478.1757379,5.18771785,1.4513841999999988,-8.20816605,0.009067617356777191,-0.04010225832462311,-0.013221712782979006,-0.9455907190759769,-0.12012506790775494,-0.28102085076781524,-0.11160394926375833
1777656478.2005696,1777656478.196738,5.1386846,1.421964249999999,-8.20816605,0.0012196325697004795,-0.043584197759628296,-0.013447681441903109,-0.945624627682401,-0.12098589786664952,-0.2803678704243987,-0.11202826996614994
1777656478.2202933,1777656478.216738,5.1190713,1.412157599999999,-8.1983594,-0.0055355653166770935,-0.04599415510892868,-0.014334884472191329,-0.9456481351687592,-0.12183546764871249,-0.2798911689720779,-0.1121011008247086
